parcode,trial,rt_mili,choice,item_left,item_right,subjidx,rt,response
0,0,2009,-1,1.1,0.95,0,2.009,1
0,1,3371,-1,2,1.7,0,3.371,1
0,2,1700,1,1.1,2.3,0,1.7,1
0,3,7466,1,1.25,1.4,0,7.466,1
0,4,1889,1,2,2.3,0,1.889,1
0,5,2227,1,1.7,1.85,0,2.227,1
0,6,4259,-1,1.85,0.65,0,4.259,1
0,7,3505,-1,1.55,0.8,0,3.505,1
0,8,2548,-1,1.55,1.1,0,2.548,1
0,9,3226,1,1.1,2,0,3.226,1
0,10,4604,-1,1.85,1.1,0,4.604,1
0,11,6333,-1,0.95,2,0,6.333,0
0,12,5716,-1,0.95,0.8,0,5.716,1
0,13,3562,-1,2,1.1,0,3.562,1
0,14,2447,-1,1.85,1.1,0,2.447,1
0,15,2120,1,1.25,1.85,0,2.12,1
0,16,6932,1,2,2,0,6.932,1
0,17,4274,1,1.25,1.7,0,4.274,1
0,18,6854,-1,1.7,1.4,0,6.854,1
0,19,6698,-1,1.1,1.1,0,6.698,1
0,20,2913,-1,1.1,0.95,0,2.913,1
0,21,4513,-1,1.7,1.55,0,4.513,1
0,22,2110,1,1.85,2,0,2.11,1
0,23,3385,-1,1.7,1.4,0,3.385,1
0,24,2456,1,1.4,2,0,2.456,1
0,25,2136,-1,1.85,1.7,0,2.136,1
0,26,7010,1,1.1,1.55,0,7.01,1
0,27,4784,-1,0.95,0.65,0,4.784,1
0,28,2697,1,1.1,1.55,0,2.697,1
0,29,4654,1,1.25,1.55,0,4.654,1
0,30,1916,1,1.55,2.3,0,1.916,1
0,31,2033,-1,1.7,1.25,0,2.033,1
0,32,1441,1,0.95,1.85,0,1.441,1
0,33,3579,1,0.65,1.25,0,3.579,1
0,34,7377,1,1.7,2,0,7.377,1
0,35,2921,-1,2.3,1.7,0,2.921,1
0,36,6398,-1,1.55,2.3,0,6.398,0
0,37,2919,1,0.65,1.7,0,2.919,1
0,38,4737,-1,1.55,1.7,0,4.737,0
0,39,3459,-1,1.7,1.1,0,3.459,1
0,40,3454,1,1.85,1.85,0,3.454,1
0,41,2478,1,1.7,1.55,0,2.478,0
0,42,1728,1,1.1,1.85,0,1.728,1
0,43,2014,-1,1.85,1.7,0,2.014,1
0,44,519,1,0.95,1.1,0,0.519,1
0,45,5492,1,1.1,1.25,0,5.492,1
0,46,3216,1,1.1,1.7,0,3.216,1
0,47,2185,-1,1.4,1.1,0,2.185,1
0,48,1467,-1,2.3,2,0,1.467,1
0,49,1707,-1,1.7,0.65,0,1.707,1
0,50,1472,1,1.1,1.55,0,1.472,1
0,51,2425,-1,2,1.1,0,2.425,1
0,52,5621,1,2.3,1.55,0,5.621,0
0,53,3216,1,0.95,1.55,0,3.216,1
0,54,3167,1,0.95,2.3,0,3.167,1
0,55,1939,-1,1.1,0.35,0,1.939,1
0,56,2066,-1,1.55,1.4,0,2.066,1
0,57,1561,1,1.25,2,0,1.561,1
0,58,2037,-1,1.85,1.55,0,2.037,1
0,59,3620,1,1.85,2,0,3.62,1
0,60,1235,1,0.35,1.85,0,1.235,1
0,61,3726,1,1.4,1.7,0,3.726,1
0,62,1764,1,1.25,1.1,0,1.764,0
0,63,4016,-1,2,1.4,0,4.016,1
0,64,2365,1,1.1,2,0,2.365,1
0,65,1583,1,1.55,1.55,0,1.583,1
0,66,5406,-1,1.55,1.25,0,5.406,1
0,67,2418,1,1.25,2,0,2.418,1
0,68,5198,-1,1.4,1.25,0,5.198,1
0,69,4101,1,1.1,1.85,0,4.101,1
0,70,3167,1,1.55,2,0,3.167,1
0,71,1675,-1,1.85,0.95,0,1.675,1
0,72,1655,1,1.7,2,0,1.655,1
0,73,1870,-1,1.55,1.1,0,1.87,1
0,74,2637,-1,1.55,1.1,0,2.637,1
0,75,3613,1,2,2,0,3.613,1
0,76,1854,-1,2.3,1.55,0,1.854,1
0,77,1999,-1,2,1.55,0,1.999,1
0,78,1979,-1,2,1.1,0,1.979,1
0,79,1987,-1,2.3,1.1,0,1.987,1
0,80,2166,-1,1.85,1.1,0,2.166,1
0,81,2263,-1,2,1.55,0,2.263,1
0,82,1491,1,0.8,1.55,0,1.491,1
0,83,1697,-1,1.1,1.25,0,1.697,0
0,84,2250,1,1.55,1.7,0,2.25,1
0,85,2017,-1,1.7,1.25,0,2.017,1
0,86,2098,1,1.7,1.85,0,2.098,1
0,87,1744,-1,2,1.25,0,1.744,1
0,88,2002,-1,1.85,1.85,0,2.002,1
0,89,2099,-1,2,1.1,0,2.099,1
0,90,4340,-1,1.4,1.7,0,4.34,0
0,91,2085,1,1.55,1.85,0,2.085,1
0,92,2755,1,1.55,2,0,2.755,1
0,93,2265,-1,2,1.85,0,2.265,1
0,94,1866,1,1.25,1.7,0,1.866,1
0,95,2166,-1,1.85,0.35,0,2.166,1
0,96,4828,1,1.25,1.1,0,4.828,0
0,97,2376,-1,2,0.95,0,2.376,1
0,98,2106,-1,2,1.85,0,2.106,1
0,99,2328,-1,1.85,1.25,0,2.328,1
0,100,4574,-1,2,1.7,0,4.574,1
0,101,1708,1,1.1,1.4,0,1.708,1
0,102,1739,1,1.1,1.85,0,1.739,1
0,103,1466,1,0.35,1.1,0,1.466,1
0,104,4432,-1,1.7,2.3,0,4.432,0
0,105,1759,1,1.1,2,0,1.759,1
0,106,1533,1,1.1,2,0,1.533,1
0,107,1556,-1,1.25,0.65,0,1.556,1
0,108,1545,-1,1.55,1.55,0,1.545,1
0,109,1291,1,1.7,2,0,1.291,1
0,110,1544,1,1.4,1.55,0,1.544,1
0,111,4190,1,0.65,0.95,0,4.19,1
0,112,1712,1,0.65,1.85,0,1.712,1
0,113,2958,1,1.55,0.95,0,2.958,0
0,114,1618,-1,2.3,0.95,0,1.618,1
0,115,1474,-1,2,1.7,0,1.474,1
0,116,1715,-1,2,1.25,0,1.715,1
0,117,1819,1,1.1,1.1,0,1.819,1
0,118,1454,1,0.95,1.1,0,1.454,1
0,119,3480,-1,0.8,0.95,0,3.48,0
1,0,3113,1,0.5,0.8,1,3.113,1
1,1,4273,1,0.05,0.5,1,4.273,1
1,2,2400,-1,0.5,0.2,1,2.4,1
1,3,2710,1,0.35,0.5,1,2.71,1
1,4,3446,-1,0.5,0.2,1,3.446,1
1,5,3993,-1,0.65,0.5,1,3.993,1
1,6,2389,-1,0.65,0.05,1,2.389,1
1,7,1404,-1,0.2,0,1,1.404,1
1,8,3249,1,0.05,0.2,1,3.249,1
1,9,1822,-1,0.35,0,1,1.822,1
1,10,1994,-1,0.2,0,1,1.994,1
1,11,2700,-1,0.65,0.2,1,2.7,1
1,12,1886,-1,0.5,0,1,1.886,1
1,13,3326,1,0.65,0.65,1,3.326,1
1,14,3299,1,0.2,0.8,1,3.299,1
1,15,2521,1,0,0.65,1,2.521,1
1,16,2952,-1,0.05,0.5,1,2.952,0
1,17,2415,-1,0.35,0.2,1,2.415,1
1,18,3498,1,0.2,0.2,1,3.498,1
1,19,2270,1,0,0.2,1,2.27,1
1,20,2513,1,0.35,0.5,1,2.513,1
1,21,2738,1,0.65,0.35,1,2.738,0
1,22,3314,-1,0.35,0.5,1,3.314,0
1,23,3086,1,0.05,0.2,1,3.086,1
1,24,2393,1,0.5,0.5,1,2.393,1
1,25,2560,1,0.05,0.2,1,2.56,1
1,26,3130,-1,0.65,0.35,1,3.13,1
1,27,4404,-1,0.65,0.5,1,4.404,1
1,28,1777,-1,0.65,0.2,1,1.777,1
1,29,2386,-1,0.5,0.35,1,2.386,1
1,30,2762,-1,0.5,0.35,1,2.762,1
1,31,1868,-1,0.65,0.2,1,1.868,1
1,32,2631,-1,0.65,0.65,1,2.631,1
1,33,3073,-1,0.65,0.5,1,3.073,1
1,34,2059,1,0,0.35,1,2.059,1
1,35,1611,1,0.2,0.65,1,1.611,1
1,36,1721,-1,0.5,0,1,1.721,1
1,37,2535,1,0.2,0,1,2.535,0
1,38,2177,1,0.65,0.5,1,2.177,0
1,39,2577,1,0,0.65,1,2.577,1
1,40,2362,1,0.2,0.65,1,2.362,1
1,41,1504,1,0,0.2,1,1.504,1
1,42,1769,-1,0.5,0.05,1,1.769,1
1,43,1998,1,0.35,0.05,1,1.998,0
1,44,1194,1,0.35,0.5,1,1.194,1
1,45,1135,1,0.05,0.65,1,1.135,1
1,46,1716,-1,0.65,0.5,1,1.716,1
1,47,1320,-1,0.5,0.65,1,1.32,0
1,48,1241,1,0.2,0.5,1,1.241,1
1,49,1278,1,0.8,0.5,1,1.278,0
1,50,1160,-1,0.35,0.2,1,1.16,1
1,51,1596,-1,0.2,0.35,1,1.596,0
1,52,1158,-1,0.65,0.2,1,1.158,1
1,53,1504,1,0.5,0.5,1,1.504,1
1,54,1069,1,0,0.5,1,1.069,1
1,55,1009,1,0.2,0.65,1,1.009,1
1,56,1124,1,0.65,0.65,1,1.124,1
1,57,1174,-1,0.5,0.2,1,1.174,1
1,58,1020,-1,0.65,0,1,1.02,1
1,59,1150,1,0,0.35,1,1.15,1
1,60,1254,-1,0.65,0.5,1,1.254,1
1,61,1898,-1,0.5,0,1,1.898,1
1,62,1184,1,0.2,0.35,1,1.184,1
1,63,1012,-1,0.8,0,1,1.012,1
1,64,2056,-1,0.35,0.65,1,2.056,0
1,65,1025,-1,0.2,0,1,1.025,1
1,66,1123,1,0.35,0.5,1,1.123,1
1,67,1224,1,0,0.2,1,1.224,1
1,68,1927,-1,0.5,0.2,1,1.927,1
1,69,1103,-1,0.8,0.5,1,1.103,1
1,70,1177,1,0,0.5,1,1.177,1
1,71,1173,1,0.5,0.65,1,1.173,1
1,72,1127,1,0.35,0.35,1,1.127,1
1,73,1540,1,0.2,0.05,1,1.54,0
1,74,1574,1,0.35,0.5,1,1.574,1
1,75,1212,-1,0.2,0.05,1,1.212,1
1,76,1247,1,0.2,0.35,1,1.247,1
1,77,1096,1,0.2,0.65,1,1.096,1
1,78,1163,-1,0.65,0.2,1,1.163,1
1,79,1068,-1,0.35,0,1,1.068,1
1,80,1829,1,0.5,0.8,1,1.829,1
1,81,1958,1,0.05,0.5,1,1.958,1
1,82,1335,-1,0.5,0.2,1,1.335,1
1,83,1560,-1,0.35,0.5,1,1.56,0
1,84,1322,-1,0.5,0.2,1,1.322,1
1,85,1545,-1,0.65,0.5,1,1.545,1
1,86,1385,-1,0.65,0.05,1,1.385,1
1,87,2884,-1,0.2,0,1,2.884,1
1,88,1358,1,0.05,0.2,1,1.358,1
1,89,1663,-1,0.35,0,1,1.663,1
1,90,1382,-1,0.2,0,1,1.382,1
1,91,3400,-1,0.65,0.2,1,3.4,1
1,92,1058,-1,0.5,0,1,1.058,1
1,93,882,1,0.65,0.65,1,0.882,1
1,94,1057,1,0.2,0.8,1,1.057,1
1,95,1229,1,0,0.65,1,1.229,1
1,96,1375,-1,0.05,0.5,1,1.375,0
1,97,819,-1,0.35,0.2,1,0.819,1
1,98,1925,1,0.2,0.2,1,1.925,1
1,99,1062,1,0,0.2,1,1.062,1
1,100,1320,1,0.35,0.5,1,1.32,1
1,101,1068,1,0.65,0.35,1,1.068,0
1,102,1506,-1,0.35,0.5,1,1.506,0
1,103,883,1,0.05,0.2,1,0.883,1
1,104,959,1,0.5,0.5,1,0.959,1
1,105,1317,1,0.05,0.2,1,1.317,1
1,106,1176,-1,0.65,0.35,1,1.176,1
1,107,1196,-1,0.65,0.5,1,1.196,1
1,108,1045,-1,0.65,0.2,1,1.045,1
1,109,1060,-1,0.5,0.35,1,1.06,1
1,110,1112,-1,0.5,0.35,1,1.112,1
1,111,1471,-1,0.65,0.2,1,1.471,1
1,112,1188,-1,0.65,0.65,1,1.188,1
1,113,1411,-1,0.65,0.5,1,1.411,1
1,114,1345,1,0,0.35,1,1.345,1
1,115,992,1,0.2,0.65,1,0.992,1
1,116,816,-1,0.5,0,1,0.816,1
1,117,1740,1,0.2,0,1,1.74,0
1,118,1032,1,0.65,0.5,1,1.032,0
1,119,1124,1,0,0.65,1,1.124,1
2,0,4138,-1,0.95,0,2,4.138,1
2,1,1615,-1,1.1,0,2,1.615,1
2,2,1521,-1,0.95,0.5,2,1.521,1
2,3,1833,-1,2.3,0,2,1.833,1
2,4,1921,1,0.5,2.6,2,1.921,1
2,5,1472,-1,2,0.05,2,1.472,1
2,6,3630,-1,1.1,0.2,2,3.63,1
2,7,2730,-1,1.25,0.35,2,2.73,1
2,8,5770,-1,2.75,2.15,2,5.77,1
2,9,2833,-1,0.05,0.2,2,2.833,0
2,10,1616,-1,0.65,0,2,1.616,1
2,11,1776,1,0,1.4,2,1.776,1
2,12,1554,1,0.2,1.95,2,1.554,1
2,13,2881,-1,0,0,2,2.881,1
2,14,2592,-1,0.65,0,2,2.592,1
2,15,1966,1,0.95,2.3,2,1.966,1
2,16,4961,1,1.25,0.35,2,4.961,0
2,17,4289,1,0,0,2,4.289,1
2,18,2382,1,2,3,2,2.382,1
2,19,1627,-1,3,0,2,1.627,1
2,20,1506,1,0,2,2,1.506,1
2,21,3071,1,0,2.75,2,3.071,1
2,22,1683,1,0.5,2.9,2,1.683,1
2,23,1869,-1,2.3,0.95,2,1.869,1
2,24,1236,-1,0.35,0.05,2,1.236,1
2,25,5758,1,3,2.3,2,5.758,0
2,26,3641,-1,1.1,1.25,2,3.641,0
2,27,1984,-1,0,0,2,1.984,1
2,28,2387,1,0.35,3,2,2.387,1
2,29,1672,1,0.95,1.95,2,1.672,1
2,30,3178,-1,0.35,1.1,2,3.178,0
2,31,4034,-1,1.7,1.25,2,4.034,1
2,32,2266,1,0.2,1.25,2,2.266,1
2,33,9110,1,2.75,2.15,2,9.11,0
2,34,1914,-1,0.95,0.65,2,1.914,1
2,35,2310,1,2.6,2,2,2.31,0
2,36,3482,-1,0.35,0.5,2,3.482,0
2,37,2185,1,0,2.75,2,2.185,1
2,38,1643,1,0.5,0.65,2,1.643,1
2,39,6848,1,1.1,2.3,2,6.848,1
2,40,3014,-1,1.95,0.95,2,3.014,1
2,41,1248,-1,1.95,0.2,2,1.248,1
2,42,1962,-1,2,0,2,1.962,1
2,43,1814,1,0.35,2.85,2,1.814,1
2,44,2794,1,0,0,2,2.794,1
2,45,4583,-1,0.35,0.5,2,4.583,0
2,46,5363,1,0.2,0.2,2,5.363,1
2,47,3832,1,0.35,1.25,2,3.832,1
2,48,1041,-1,2.15,0,2,1.041,1
2,49,2045,1,0.05,2.75,2,2.045,1
2,50,1479,-1,2.6,0.5,2,1.479,1
2,51,1750,-1,0.35,1.25,2,1.75,0
2,52,2726,-1,2.9,1.1,2,2.726,1
2,53,2387,1,0.2,0.05,2,2.387,0
2,54,1629,1,0.5,2.6,2,1.629,1
2,55,3360,-1,2.75,0,2,3.36,1
2,56,1625,-1,2,2.6,2,1.625,0
2,57,1991,1,0,0.65,2,1.991,1
2,58,5695,1,0,0,2,5.695,1
2,59,1470,1,0.2,1.1,2,1.47,1
2,60,1108,1,0,2.3,2,1.108,1
2,61,1263,1,0,0.5,2,1.263,1
2,62,1223,1,0.65,2.3,2,1.223,1
2,63,944,1,0,2.15,2,0.944,1
2,64,966,-1,3,0.35,2,0.966,1
2,65,1471,-1,2.9,0.5,2,1.471,1
2,66,1325,-1,2.3,0.95,2,1.325,1
2,67,2047,-1,0.5,1.7,2,2.047,0
2,68,1318,1,0,0.65,2,1.318,1
2,69,1410,-1,2.6,2.75,2,1.41,0
2,70,1109,-1,1.1,0.65,2,1.109,1
2,71,2158,1,0,0.35,2,2.158,1
2,72,3687,-1,1.25,1.7,2,3.687,0
2,73,2117,-1,1.1,1.4,2,2.117,0
2,74,1499,-1,2.15,2.75,2,1.499,0
2,75,871,1,1.25,2.15,2,0.871,1
2,76,1230,-1,2.15,0.5,2,1.23,1
2,77,1466,-1,1.25,0.2,2,1.466,1
2,78,1764,1,2.3,2.85,2,1.764,1
2,79,2222,1,0,0.35,2,2.222,1
2,80,1351,-1,0.35,0,2,1.351,1
2,81,1418,1,0.5,0.95,2,1.418,1
2,82,1152,1,0,1.1,2,1.152,1
2,83,2764,1,1.25,1.1,2,2.764,0
2,84,2555,1,2.75,2.6,2,2.555,0
2,85,1966,1,0,3,2,1.966,1
2,86,1839,1,0.65,1.1,2,1.839,1
2,87,1619,-1,2.15,1.25,2,1.619,1
2,88,4705,1,2.3,3,2,4.705,1
2,89,1404,-1,0.65,0.5,2,1.404,1
2,90,2197,-1,2.3,0,2,2.197,1
2,91,2248,-1,2.85,2.3,2,2.248,1
2,92,2783,-1,2.3,1.1,2,2.783,1
2,93,1276,1,0.5,0.35,2,1.276,0
2,94,1925,-1,0.35,0,2,1.925,1
2,95,1836,-1,3,2,2,1.836,1
2,96,2134,-1,2.3,0.65,2,2.134,1
2,97,1352,1,0,2.15,2,1.352,1
2,98,1285,-1,2.85,0.35,2,1.285,1
2,99,1344,1,0,0.95,2,1.344,1
2,100,1834,1,1.7,0.5,2,1.834,0
2,101,2169,1,1.1,0.35,2,2.169,0
2,102,1192,-1,2.15,0,2,1.192,1
2,103,1448,1,1.1,2.9,2,1.448,1
2,104,1618,1,0.05,2,2,1.618,1
2,105,2337,-1,0.2,0.2,2,2.337,1
2,106,1817,-1,2.75,0,2,1.817,1
2,107,953,-1,2.75,0.05,2,0.953,1
2,108,1666,1,0.65,0.95,2,1.666,1
2,109,1120,-1,2.6,0.5,2,1.12,1
2,110,1819,1,0.95,2.3,2,1.819,1
2,111,1672,1,1.4,1.1,2,1.672,0
2,112,4290,-1,0.5,0,2,4.29,1
2,113,1477,1,2.15,2.75,2,1.477,1
2,114,1372,1,0,2.3,2,1.372,1
2,115,1507,1,0.5,2.15,2,1.507,1
2,116,2567,-1,1.4,0,2,2.567,1
2,117,1513,1,0,0,2,1.513,1
2,118,1648,1,0.05,0.35,2,1.648,1
2,119,1125,1,0.5,0.35,2,1.125,0
3,0,3916,-1,0,0,3,3.916,1
3,1,2427,-1,2.45,0.65,3,2.427,1
3,2,3746,1,0.05,0.35,3,3.746,1
3,3,3621,-1,1.1,0.35,3,3.621,1
3,4,2167,1,1.55,0.95,3,2.167,0
3,5,2378,-1,2.45,1.55,3,2.378,1
3,6,3483,-1,1.1,0.65,3,3.483,1
3,7,2759,1,0,0.95,3,2.759,1
3,8,11236,1,0.05,0.65,3,11.236,1
3,9,2620,1,0.05,0.95,3,2.62,1
3,10,5035,-1,0.95,1.1,3,5.035,0
3,11,6939,-1,1.4,1.25,3,6.939,1
3,12,2210,1,0,0.95,3,2.21,1
3,13,1773,1,0.05,1.4,3,1.773,1
3,14,1790,1,0,0.65,3,1.79,1
3,15,4010,1,1.55,0.2,3,4.01,0
3,16,2599,1,0,1.25,3,2.599,1
3,17,8879,-1,2.45,0.65,3,8.879,1
3,18,2397,-1,1.4,0.65,3,2.397,1
3,19,2316,-1,0.65,0.05,3,2.316,1
3,20,1897,-1,1.7,0.65,3,1.897,1
3,21,7320,1,0.5,0.65,3,7.32,1
3,22,3510,-1,0.05,0,3,3.51,1
3,23,2683,1,0.05,1.55,3,2.683,1
3,24,1943,1,0.05,0.65,3,1.943,1
3,25,1684,-1,0.65,0.2,3,1.684,1
3,26,3811,1,0.95,1.4,3,3.811,1
3,27,1739,1,0.5,1.25,3,1.739,1
3,28,2891,-1,0.8,0.35,3,2.891,1
3,29,4217,1,0.65,2.3,3,4.217,1
3,30,6103,1,0.95,0.95,3,6.103,1
3,31,5579,-1,0.8,0.8,3,5.579,1
3,32,4646,1,0.8,0.35,3,4.646,0
3,33,4253,1,0.05,0.95,3,4.253,1
3,34,2616,1,1.25,0.95,3,2.616,0
3,35,5075,-1,0.95,0.8,3,5.075,1
3,36,2093,-1,0.65,0.8,3,2.093,0
3,37,4899,1,1.1,1.55,3,4.899,1
3,38,4563,1,1.1,0.95,3,4.563,0
3,39,2354,-1,0.95,0,3,2.354,1
3,40,3952,1,0,0.05,3,3.952,1
3,41,1354,-1,1.25,0.5,3,1.354,1
3,42,1708,1,0.95,1.1,3,1.708,1
3,43,1662,-1,0.95,1.25,3,1.662,0
3,44,3300,-1,1.4,0.95,3,3.3,1
3,45,2187,1,0.35,1.55,3,2.187,1
3,46,1537,-1,0.95,0,3,1.537,1
3,47,4601,1,0.05,0.95,3,4.601,1
3,48,1768,-1,0,0.05,3,1.768,0
3,49,2069,-1,1.7,1.4,3,2.069,1
3,50,3884,1,0,0,3,3.884,1
3,51,1877,1,0.05,1.1,3,1.877,1
3,52,1563,-1,1.4,0,3,1.563,1
3,53,1706,1,0,1.1,3,1.706,1
3,54,4268,-1,0.95,0.95,3,4.268,1
3,55,1762,1,0.65,1.7,3,1.762,1
3,56,1773,1,0.35,1.1,3,1.773,1
3,57,7000,-1,0.95,0.05,3,7,1
3,58,3982,-1,0.65,0,3,3.982,1
3,59,1869,-1,0.95,0,3,1.869,1
3,60,2105,-1,0.95,0,3,2.105,1
3,61,1507,-1,0.95,0.05,3,1.507,1
3,62,2742,1,0.35,0.8,3,2.742,1
3,63,2430,1,0.05,0.65,3,2.43,1
3,64,2550,1,0,0.5,3,2.55,1
3,65,2499,1,1.1,0.5,3,2.499,0
3,66,3249,-1,0.95,1.1,3,3.249,0
3,67,2161,1,0,1.55,3,2.161,1
3,68,2270,1,0.8,0.95,3,2.27,1
3,69,2322,-1,0.65,0,3,2.322,1
3,70,1885,1,0,0.05,3,1.885,1
3,71,2328,1,0.05,0.95,3,2.328,1
3,72,1789,1,0,0.95,3,1.789,1
3,73,3082,1,1.1,0.95,3,3.082,0
3,74,2710,1,0.95,2.3,3,2.71,1
3,75,3318,-1,2.45,1.1,3,3.318,1
3,76,1596,-1,1.55,0.05,3,1.596,1
3,77,2020,1,0.95,1.55,3,2.02,1
3,78,1498,-1,1.25,0,3,1.498,1
3,79,3854,1,0.35,0.8,3,3.854,1
3,80,3897,-1,0.95,0.8,3,3.897,1
3,81,1515,-1,0.95,1.55,3,1.515,0
3,82,2095,1,0.8,0.65,3,2.095,0
3,83,1847,-1,1.55,0.95,3,1.847,1
3,84,3787,1,0.65,0.5,3,3.787,0
3,85,3488,-1,1.55,1.1,3,3.488,1
3,86,4082,1,0.8,0.95,3,4.082,1
3,87,2037,1,0.2,0.65,3,2.037,1
3,88,1874,1,0.8,0.8,3,1.874,1
3,89,1663,1,0,1.4,3,1.663,1
3,90,5986,-1,0.8,0.35,3,5.986,1
3,91,7087,1,1.25,1.4,3,7.087,1
3,92,1695,1,0,0.65,3,1.695,1
3,93,1739,1,0.65,1.4,3,1.739,1
3,94,3157,-1,2.3,0.65,3,3.157,1
3,95,1509,-1,1.1,0,3,1.509,1
3,96,4811,1,0.65,2.45,3,4.811,1
3,97,1924,-1,0.95,0.05,3,1.924,1
3,98,1294,-1,0.65,0.05,3,1.294,1
3,99,1835,-1,0.2,1.55,3,1.835,0
3,100,2191,1,0,0.95,3,2.191,1
3,101,1573,1,1.4,1.7,3,1.573,1
3,102,2013,-1,2.3,0.95,3,2.013,1
3,103,1253,-1,1.55,0.35,3,1.253,1
3,104,2332,-1,0.5,0,3,2.332,1
3,105,3469,1,1.55,2.45,3,3.469,1
3,106,7005,-1,0.35,0.8,3,7.005,0
3,107,4749,-1,0.95,0.05,3,4.749,1
3,108,2096,1,1.1,2.45,3,2.096,1
3,109,1272,-1,1.55,0,3,1.272,1
3,110,3300,-1,0.35,0.05,3,3.3,1
3,111,1336,-1,1.1,0.05,3,1.336,1
3,112,1260,-1,1.4,0.05,3,1.26,1
3,113,1340,-1,0.05,0,3,1.34,1
3,114,3912,-1,0.65,0.05,3,3.912,1
3,115,1344,-1,0.05,0,3,1.344,1
3,116,3005,1,0.65,1.1,3,3.005,1
3,117,1676,-1,1.1,0.95,3,1.676,1
3,118,2666,-1,0.5,1.1,3,2.666,0
3,119,1883,1,0.65,2.45,3,1.883,1
4,0,1944,-1,0.05,0,4,1.944,1
4,1,3591,1,0,0,4,3.591,1
4,2,1669,-1,0.8,0.65,4,1.669,1
4,3,1473,-1,0.6,0,4,1.473,1
4,4,1379,1,0,0.65,4,1.379,1
4,5,2554,1,0,0,4,2.554,1
4,6,1539,-1,0.5,0,4,1.539,1
4,7,1370,1,0,0,4,1.37,1
4,8,1375,1,0,0.95,4,1.375,1
4,9,3063,1,0.05,0.2,4,3.063,1
4,10,1369,1,0,0.05,4,1.369,1
4,11,1598,1,0,0.95,4,1.598,1
4,12,1833,-1,0,0,4,1.833,1
4,13,1252,1,0.35,0.8,4,1.252,1
4,14,1773,-1,0.65,0,4,1.773,1
4,15,1471,1,0,0.8,4,1.471,1
4,16,3207,-1,0.5,0,4,3.207,1
4,17,1903,-1,0,0,4,1.903,1
4,18,2550,-1,1.1,0.05,4,2.55,1
4,19,1988,-1,0.2,0,4,1.988,1
4,20,1531,-1,1.1,0,4,1.531,1
4,21,4111,1,0.5,0.65,4,4.111,1
4,22,5355,1,0,0,4,5.355,1
4,23,1387,-1,1.1,0,4,1.387,1
4,24,1688,-1,0.6,0.35,4,1.688,1
4,25,3569,1,0,0.05,4,3.569,1
4,26,1619,1,0.5,1.1,4,1.619,1
4,27,4123,1,0,0,4,4.123,1
4,28,1834,1,0,0,4,1.834,1
4,29,1416,1,0.05,0.2,4,1.416,1
4,30,1288,1,0,0.8,4,1.288,1
4,31,1361,1,0,1.1,4,1.361,1
4,32,1465,1,0.05,0,4,1.465,0
4,33,1650,-1,0.05,0,4,1.65,1
4,34,2292,1,0,0,4,2.292,1
4,35,1348,1,0,0.5,4,1.348,1
4,36,1407,-1,0.8,0.5,4,1.407,1
4,37,1486,1,0,0.8,4,1.486,1
4,38,1610,1,0.5,0.95,4,1.61,1
4,39,2680,-1,0,0,4,2.68,1
4,40,2420,-1,0,0,4,2.42,1
4,41,2161,-1,0,0,4,2.161,1
4,42,1342,-1,0.8,0,4,1.342,1
4,43,1253,1,0,0,4,1.253,1
4,44,1262,-1,0.8,0,4,1.262,1
4,45,1895,1,0,0,4,1.895,1
4,46,2956,-1,0.65,0.5,4,2.956,1
4,47,1518,-1,0.8,0,4,1.518,1
4,48,1020,1,0,1.1,4,1.02,1
4,49,1407,-1,0,0,4,1.407,1
4,50,2155,-1,0.5,0,4,2.155,1
4,51,1575,1,0,0.65,4,1.575,1
4,52,1830,-1,0,0,4,1.83,1
4,53,1061,-1,0,0,4,1.061,1
4,54,1095,1,0.5,0.8,4,1.095,1
4,55,1536,1,0,0,4,1.536,1
4,56,1046,-1,1.1,0,4,1.046,1
4,57,1951,-1,0.8,0.35,4,1.951,1
4,58,1306,-1,0,0,4,1.306,1
4,59,1983,1,0,0.2,4,1.983,1
4,60,1847,-1,0,0.2,4,1.847,0
4,61,1761,1,0.05,0.95,4,1.761,1
4,62,2454,-1,0.05,0,4,2.454,1
4,63,2720,1,0.35,0,4,2.72,0
4,64,1076,-1,0.2,0.05,4,1.076,1
4,65,1871,1,0,0.8,4,1.871,1
4,66,926,-1,0.65,0.05,4,0.926,1
4,67,1366,-1,0.05,0,4,1.366,1
4,68,1282,1,0,1.1,4,1.282,1
4,69,1485,1,0,0.05,4,1.485,1
4,70,2086,-1,0.8,0.05,4,2.086,1
4,71,1351,-1,0.65,0,4,1.351,1
4,72,1516,-1,0,0.5,4,1.516,0
4,73,1085,1,0,0,4,1.085,1
4,74,1580,-1,0.35,0,4,1.58,1
4,75,1235,-1,0.8,0,4,1.235,1
4,76,1850,1,0.8,0.8,4,1.85,1
4,77,1398,1,0.05,1.1,4,1.398,1
4,78,1486,1,0,0.5,4,1.486,1
4,79,4333,-1,0,0,4,4.333,1
4,80,2015,-1,0.5,0,4,2.015,1
4,81,1236,-1,0.95,0,4,1.236,1
4,82,1346,1,0,0,4,1.346,1
4,83,1235,1,0.65,0.8,4,1.235,1
4,84,1382,1,0,0,4,1.382,1
4,85,1491,1,0,0,4,1.491,1
4,86,2413,-1,0.65,0,4,2.413,1
4,87,1509,-1,0.8,0,4,1.509,1
4,88,1114,1,0,0.5,4,1.114,1
4,89,1071,1,0,0.6,4,1.071,1
4,90,1696,-1,0,0,4,1.696,1
4,91,2318,1,0.2,0.05,4,2.318,0
4,92,1504,-1,1.1,0,4,1.504,1
4,93,1920,-1,1.1,0.5,4,1.92,1
4,94,1381,-1,0.95,0,4,1.381,1
4,95,4618,1,0,0.05,4,4.618,1
4,96,1067,1,0.35,0.6,4,1.067,1
4,97,1600,-1,0,0,4,1.6,1
4,98,903,1,0,0,4,0.903,1
4,99,1515,1,0,0.05,4,1.515,1
4,100,1737,-1,0.2,0,4,1.737,1
4,101,943,1,0,1.1,4,0.943,1
4,102,1317,1,0.05,0.65,4,1.317,1
4,103,1197,1,0,0.8,4,1.197,1
4,104,2430,1,0,0,4,2.43,1
4,105,1257,-1,0.8,0,4,1.257,1
4,106,2005,1,0,0.35,4,2.005,1
4,107,1129,1,0,0.8,4,1.129,1
4,108,1162,1,0,0.65,4,1.162,1
4,109,1801,-1,0,0,4,1.801,1
4,110,2430,1,0,0,4,2.43,1
4,111,1379,1,0.05,0.8,4,1.379,1
4,112,1529,-1,0.95,0.5,4,1.529,1
4,113,2327,-1,0,0,4,2.327,1
4,114,1531,-1,0,0.35,4,1.531,0
4,115,1360,-1,0,0.05,4,1.36,0
4,116,1619,-1,0.05,0,4,1.619,1
4,117,1415,-1,0,0,4,1.415,1
4,118,1552,-1,0.8,0.8,4,1.552,1
4,119,1627,-1,0.95,0.05,4,1.627,1
5,0,2028,-1,1.4,0.95,5,2.028,1
5,1,2197,1,0.5,0.65,5,2.197,1
5,2,1864,1,0.5,0.8,5,1.864,1
5,3,2066,1,0.35,0.65,5,2.066,1
5,4,1702,1,0.35,0.95,5,1.702,1
5,5,2343,1,0.2,0.95,5,2.343,1
5,6,3469,-1,1.1,0.8,5,3.469,1
5,7,4105,-1,0.8,0.5,5,4.105,1
5,8,2482,1,0,0.5,5,2.482,1
5,9,3178,1,0.35,0.95,5,3.178,1
5,10,1763,-1,1.1,0.65,5,1.763,1
5,11,2708,1,0.95,0.95,5,2.708,1
5,12,3466,-1,1.4,0,5,3.466,1
5,13,1868,-1,0.65,0.65,5,1.868,1
5,14,2141,-1,0.65,0,5,2.141,1
5,15,1801,1,0.5,0.65,5,1.801,1
5,16,4713,1,0.95,0.65,5,4.713,0
5,17,1717,-1,1.1,0.2,5,1.717,1
5,18,1870,-1,0.65,0.8,5,1.87,0
5,19,1629,-1,1.1,0.5,5,1.629,1
5,20,2029,1,0.5,0.8,5,2.029,1
5,21,3458,1,0.95,1.1,5,3.458,1
5,22,2113,1,0.95,0.8,5,2.113,0
5,23,2422,1,0.65,0.8,5,2.422,1
5,24,2205,-1,0.65,1.1,5,2.205,0
5,25,2222,-1,0.8,0.65,5,2.222,1
5,26,3793,1,0.5,0.65,5,3.793,1
5,27,2187,1,0.8,1.1,5,2.187,1
5,28,2330,-1,0.95,0.35,5,2.33,1
5,29,3852,1,0.95,0.65,5,3.852,0
5,30,3695,-1,0.65,0.95,5,3.695,0
5,31,3260,-1,0.8,0.8,5,3.26,1
5,32,24903,-1,0.2,0.8,5,24.903,0
5,33,4399,1,0.65,0.8,5,4.399,1
5,34,3612,1,0,0.5,5,3.612,1
5,35,2359,1,0.8,0.95,5,2.359,1
5,36,4328,1,0.8,1.1,5,4.328,1
5,37,1866,1,0.5,0.5,5,1.866,1
5,38,2742,-1,1.25,1.1,5,2.742,1
5,39,2290,1,0.95,0.5,5,2.29,0
5,40,4077,1,0.95,0.95,5,4.077,1
5,41,1560,-1,1.1,0.95,5,1.56,1
5,42,2605,-1,0.5,0,5,2.605,1
5,43,1836,1,0.2,0.35,5,1.836,1
5,44,1968,-1,1.1,0.8,5,1.968,1
5,45,3258,-1,0.65,0.5,5,3.258,1
5,46,3518,-1,0.95,0.8,5,3.518,1
5,47,1889,-1,0.95,0.35,5,1.889,1
5,48,1837,-1,0.65,0.5,5,1.837,1
5,49,2012,1,0.8,0.65,5,2.012,0
5,50,2183,-1,0.5,0,5,2.183,1
5,51,1414,1,0.35,1.1,5,1.414,1
5,52,1778,1,0,1.1,5,1.778,1
5,53,2422,-1,1.25,0.8,5,2.422,1
5,54,1579,-1,1.1,0.95,5,1.579,1
5,55,2238,-1,0.5,0.95,5,2.238,0
5,56,1383,1,0.8,0.95,5,1.383,1
5,57,2886,-1,0.5,0.8,5,2.886,0
5,58,1683,1,0.95,0.65,5,1.683,0
5,59,3159,-1,0.65,0.35,5,3.159,1
5,60,1700,1,0.35,0.5,5,1.7,1
5,61,1632,-1,0.8,0.65,5,1.632,1
5,62,3465,-1,0.8,0.5,5,3.465,1
5,63,2207,-1,0.95,0.35,5,2.207,1
5,64,2594,1,0.8,0.8,5,2.594,1
5,65,1828,-1,1.1,0.5,5,1.828,1
5,66,1993,-1,0.8,0.95,5,1.993,0
5,67,2343,-1,0.65,0.65,5,2.343,1
5,68,1632,1,0.65,1.1,5,1.632,1
5,69,1456,-1,0.65,0.95,5,1.456,0
5,70,2478,-1,0.65,0.5,5,2.478,1
5,71,1991,1,0.2,1.1,5,1.991,1
5,72,1905,1,0.35,0.65,5,1.905,1
5,73,2195,-1,1.1,0.65,5,2.195,1
5,74,1754,-1,0.95,0,5,1.754,1
5,75,2658,1,0.65,0.8,5,2.658,1
5,76,1755,1,0.95,1.4,5,1.755,1
5,77,2863,1,0.95,1.1,5,2.863,1
5,78,1514,-1,0.65,0.95,5,1.514,0
5,79,2971,1,0.5,0.8,5,2.971,1
5,80,1826,-1,1.1,0.95,5,1.826,1
5,81,1908,-1,1.1,0.8,5,1.908,1
5,82,2450,-1,0,0.65,5,2.45,0
5,83,2532,-1,0.8,0.5,5,2.532,1
5,84,1653,-1,0.5,0.35,5,1.653,1
5,85,2581,-1,0.5,0.8,5,2.581,0
5,86,1539,-1,1.1,0.95,5,1.539,1
5,87,1602,1,0.65,0.65,5,1.602,1
5,88,2941,1,1.1,0.65,5,2.941,0
5,89,2425,-1,0.65,0.65,5,2.425,1
5,90,1935,-1,0.95,0.35,5,1.935,1
5,91,1552,1,0.65,0.8,5,1.552,1
5,92,2729,1,0.95,1.1,5,2.729,1
5,93,1878,1,0.8,0.65,5,1.878,0
5,94,1452,1,0.5,1.1,5,1.452,1
5,95,1693,1,0.8,0.5,5,1.693,0
5,96,1529,1,0.8,0.2,5,1.529,0
5,97,2201,1,0.8,0.8,5,2.201,1
5,98,3317,-1,0.35,0.2,5,3.317,1
5,99,1205,-1,1.1,0,5,1.205,1
5,100,1749,1,0.8,0.5,5,1.749,0
5,101,1554,1,1.1,1.25,5,1.554,1
5,102,1827,-1,0.95,0.2,5,1.827,1
5,103,1525,1,0.65,1.1,5,1.525,1
5,104,1791,1,0.35,0.95,5,1.791,1
5,105,1359,-1,0.65,0.35,5,1.359,1
5,106,2219,-1,0.8,0.65,5,2.219,1
5,107,1546,1,0.35,0.65,5,1.546,1
5,108,1451,1,0,0.95,5,1.451,1
5,109,1997,1,0.95,0.8,5,1.997,0
5,110,1996,-1,0.65,0.35,5,1.996,1
5,111,1720,1,0,1.4,5,1.72,1
5,112,1503,-1,0.5,0.5,5,1.503,1
5,113,2481,1,0.8,0.8,5,2.481,1
5,114,1808,1,0.8,1.25,5,1.808,1
5,115,1768,1,0.5,1.1,5,1.768,1
5,116,2272,1,0.35,0.95,5,2.272,1
5,117,1588,-1,1.1,0.35,5,1.588,1
5,118,1521,1,0.95,1.1,5,1.521,1
5,119,1654,1,0.8,1.1,5,1.654,1
6,0,1928,-1,0.95,1.4,6,1.928,0
6,1,4194,1,0.65,0.8,6,4.194,1
6,2,2641,1,0.8,0.8,6,2.641,1
6,3,2684,-1,0.95,0.65,6,2.684,1
6,4,1506,1,0.65,0.95,6,1.506,1
6,5,2147,-1,1.4,0.65,6,2.147,1
6,6,2007,-1,0.95,0,6,2.007,1
6,7,1439,-1,0.95,0.8,6,1.439,1
6,8,2377,-1,0.65,0.95,6,2.377,0
6,9,1529,-1,0.8,0.5,6,1.529,1
6,10,1766,-1,0.65,0.65,6,1.766,1
6,11,4347,-1,0.65,0.65,6,4.347,1
6,12,1309,-1,0.95,0.95,6,1.309,1
6,13,1520,-1,0.95,0.8,6,1.52,1
6,14,2229,1,0.65,0.65,6,2.229,1
6,15,4567,1,0.95,0.5,6,4.567,0
6,16,1624,1,0.95,0.95,6,1.624,1
6,17,2488,1,0.95,1.1,6,2.488,1
6,18,1411,-1,0.65,0.8,6,1.411,0
6,19,1473,1,0,0.95,6,1.473,1
6,20,2715,1,0.65,0.35,6,2.715,0
6,21,1698,-1,0.65,0.95,6,1.698,0
6,22,1593,-1,0.95,0.95,6,1.593,1
6,23,2855,1,0.8,0.8,6,2.855,1
6,24,5320,-1,0.5,0.8,6,5.32,0
6,25,1752,-1,0.65,0.8,6,1.752,0
6,26,1509,1,0.95,0.8,6,1.509,0
6,27,1701,1,0.5,1.4,6,1.701,1
6,28,1350,1,0.95,0.8,6,1.35,0
6,29,1891,-1,0.65,0.95,6,1.891,0
6,30,2255,-1,1.1,0.65,6,2.255,1
6,31,9549,-1,0.8,0.8,6,9.549,1
6,32,759,1,0.65,0.65,6,0.759,1
6,33,1619,1,0.8,0.95,6,1.619,1
6,34,1815,1,0.35,1.25,6,1.815,1
6,35,2159,-1,0,0.8,6,2.159,0
6,36,1611,1,0.8,0.95,6,1.611,1
6,37,4682,1,0.8,0.95,6,4.682,1
6,38,1289,1,0.8,0.65,6,1.289,0
6,39,2833,1,0.65,0.95,6,2.833,1
6,40,1394,1,0,0.5,6,1.394,1
6,41,1906,1,0.8,0.65,6,1.906,0
6,42,2107,-1,0.95,0.8,6,2.107,1
6,43,3027,1,0.95,1.4,6,3.027,1
6,44,2600,1,0.95,0.8,6,2.6,0
6,45,1417,-1,0.95,0.65,6,1.417,1
6,46,2295,1,0.65,0.95,6,2.295,1
6,47,3582,-1,0.65,0.95,6,3.582,0
6,48,1190,1,0.8,0.95,6,1.19,1
6,49,1701,-1,0.65,1.4,6,1.701,0
6,50,3387,-1,0.65,0.65,6,3.387,1
6,51,1950,-1,0.95,0.95,6,1.95,1
6,52,4977,-1,0.95,0.8,6,4.977,1
6,53,1650,-1,0.95,0.35,6,1.65,1
6,54,1315,1,0.8,0.95,6,1.315,1
6,55,2396,-1,0.8,0.8,6,2.396,1
6,56,2956,-1,0.95,0.65,6,2.956,1
6,57,2401,-1,0.8,0.8,6,2.401,1
6,58,1843,1,1.4,0.95,6,1.843,0
6,59,971,-1,0,0.65,6,0.971,0
6,60,2911,1,0.8,0.5,6,2.911,0
6,61,1357,-1,0.8,0.95,6,1.357,0
6,62,2067,-1,0.65,0.65,6,2.067,1
6,63,2047,-1,1.1,0.95,6,2.047,1
6,64,3643,-1,0.5,0.95,6,3.643,0
6,65,2231,-1,0.8,0.65,6,2.231,1
6,66,2366,1,1.55,1.25,6,2.366,0
6,67,2632,1,0.8,0.95,6,2.632,1
6,68,1651,-1,0.65,0.8,6,1.651,0
6,69,1586,-1,0.35,0.65,6,1.586,0
6,70,1296,-1,0.95,0.95,6,1.296,1
6,71,1235,1,0,0.5,6,1.235,1
6,72,1516,1,0.65,1.55,6,1.516,1
6,73,2250,-1,0.95,0.65,6,2.25,1
6,74,2296,1,0.35,0.65,6,2.296,1
6,75,1628,-1,0.95,0,6,1.628,1
6,76,2304,-1,0.95,0.65,6,2.304,1
6,77,1846,1,0.95,0.95,6,1.846,1
6,78,1605,-1,0.95,0,6,1.605,1
6,79,1271,-1,1.4,0.5,6,1.271,1
6,80,2963,-1,0.95,0.8,6,2.963,1
6,81,2341,1,0.65,0.65,6,2.341,1
6,82,2313,1,0.8,0,6,2.313,0
6,83,1339,1,0.95,0.65,6,1.339,0
6,84,1323,-1,1.25,1.55,6,1.323,0
6,85,2284,1,0.95,0.65,6,2.284,0
6,86,1511,-1,1.4,0.95,6,1.511,1
6,87,1688,1,0.8,0.95,6,1.688,1
6,88,848,1,0.95,0.95,6,0.848,1
6,89,2451,1,0.8,0.95,6,2.451,1
6,90,1051,-1,0.5,0,6,1.051,1
6,91,1537,1,0.35,0.95,6,1.537,1
6,92,1026,-1,0.5,0,6,1.026,1
6,93,1821,1,0.65,1.1,6,1.821,1
6,94,1019,-1,0.65,0,6,1.019,1
6,95,1082,1,0.95,0.95,6,1.082,1
6,96,2864,1,0.95,0.65,6,2.864,0
6,97,2367,1,0.65,0.95,6,2.367,1
6,98,1091,-1,0.65,0.35,6,1.091,1
6,99,1598,1,0.8,0.65,6,1.598,0
6,100,1885,1,0.65,0.65,6,1.885,1
6,101,1530,-1,1.25,0.35,6,1.53,1
6,102,1104,-1,0.95,0.8,6,1.104,1
6,103,1021,-1,0.95,0.95,6,1.021,1
6,104,1850,-1,0.8,0.95,6,1.85,0
6,105,1320,1,0.65,0.65,6,1.32,1
6,106,904,1,0,0.95,6,0.904,1
6,107,1339,1,0.65,0.65,6,1.339,1
6,108,1143,-1,0.8,0.8,6,1.143,1
6,109,1422,-1,0.95,0,6,1.422,1
6,110,1125,1,0.95,0.95,6,1.125,1
6,111,1384,-1,0.95,0.8,6,1.384,1
6,112,1261,1,0,0.95,6,1.261,1
6,113,1501,-1,1.55,0.65,6,1.501,1
6,114,1148,1,0.65,0.95,6,1.148,1
6,115,1303,1,0.95,0.65,6,1.303,0
6,116,1263,1,0.5,0.8,6,1.263,1
6,117,1326,1,0.8,0.65,6,1.326,0
6,118,6668,-1,0.65,0.8,6,6.668,0
6,119,1010,1,0,0.95,6,1.01,1
7,0,2562,-1,0.95,0.95,7,2.562,1
7,1,3709,-1,2.45,1.1,7,3.709,1
7,2,3707,-1,1.1,1.1,7,3.707,1
7,3,1775,-1,1.4,0.95,7,1.775,1
7,4,2242,-1,1.1,0.35,7,2.242,1
7,5,7777,1,0.95,2,7,7.777,1
7,6,3068,1,1.1,0.95,7,3.068,0
7,7,4508,-1,1.55,1.1,7,4.508,1
7,8,3300,1,0.95,1.55,7,3.3,1
7,9,1901,1,0.95,1.1,7,1.901,1
7,10,2798,1,1.55,1.1,7,2.798,0
7,11,6463,1,0.5,0.95,7,6.463,1
7,12,2423,1,0.95,2.3,7,2.423,1
7,13,3995,-1,2.45,2,7,3.995,1
7,14,4172,1,0.95,1.1,7,4.172,1
7,15,2646,-1,1.1,0.65,7,2.646,1
7,16,3748,1,0.35,0.5,7,3.748,1
7,17,3971,-1,0.95,1.4,7,3.971,0
7,18,4791,-1,1.25,0.5,7,4.791,1
7,19,6822,1,1.55,1.85,7,6.822,1
7,20,7438,1,1.1,1.1,7,7.438,1
7,21,4818,-1,2,1.25,7,4.818,1
7,22,2526,-1,2,0.35,7,2.526,1
7,23,4766,-1,2,1.4,7,4.766,1
7,24,2008,1,2,1.1,7,2.008,0
7,25,2589,1,0.5,2.45,7,2.589,1
7,26,2672,1,2,2.45,7,2.672,1
7,27,3508,1,0.35,1.1,7,3.508,1
7,28,2744,-1,1.4,1.1,7,2.744,1
7,29,6724,-1,1.1,1.25,7,6.724,0
7,30,4206,1,0.5,0.95,7,4.206,1
7,31,3373,1,2,0.95,7,3.373,0
7,32,2463,-1,0.95,0.95,7,2.463,1
7,33,3506,1,1.1,0.95,7,3.506,0
7,34,2164,1,1.1,2.45,7,2.164,1
7,35,2248,-1,0.95,1.1,7,2.248,0
7,36,1490,1,1.25,1.1,7,1.49,0
7,37,2130,1,0.95,1.25,7,2.13,1
7,38,1253,-1,1.1,1.1,7,1.253,1
7,39,3991,1,0.95,1.1,7,3.991,1
7,40,2772,-1,2.45,1.1,7,2.772,1
7,41,2700,1,0.5,1.25,7,2.7,1
7,42,2661,-1,1.55,0.95,7,2.661,1
7,43,1749,1,0.95,1.4,7,1.749,1
7,44,2555,-1,1.1,0.95,7,2.555,1
7,45,2085,-1,1.1,1.25,7,2.085,0
7,46,2682,-1,1.4,2,7,2.682,0
7,47,3236,1,1.1,1.55,7,3.236,1
7,48,2828,1,0.95,0.95,7,2.828,1
7,49,2501,-1,2,0.5,7,2.501,1
7,50,2631,-1,1.1,0.95,7,2.631,1
7,51,4864,1,1.1,0.95,7,4.864,0
7,52,1410,-1,1.1,1.1,7,1.41,1
7,53,1475,1,0.8,1.1,7,1.475,1
7,54,4804,-1,2,1.1,7,4.804,1
7,55,1677,1,1.1,1.1,7,1.677,1
7,56,2396,1,1.1,2.3,7,2.396,1
7,57,2395,-1,1.1,0.95,7,2.395,1
7,58,2022,1,0.35,1.1,7,2.022,1
7,59,1751,1,0.35,2,7,1.751,1
7,60,2889,-1,2,0.8,7,2.889,1
7,61,1270,-1,1.25,2,7,1.27,0
7,62,4447,-1,0.95,0.65,7,4.447,1
7,63,2915,-1,1.25,0.95,7,2.915,1
7,64,9013,1,1.55,1.4,7,9.013,0
7,65,1853,1,1.1,2.45,7,1.853,1
7,66,3567,1,1.1,1.85,7,3.567,1
7,67,4428,-1,2.45,2,7,4.428,1
7,68,3230,1,1.1,1.55,7,3.23,1
7,69,4884,-1,1.1,2,7,4.884,0
7,70,2585,1,1.1,1.1,7,2.585,1
7,71,3986,1,1.1,1.1,7,3.986,1
7,72,2925,-1,0.5,0.35,7,2.925,1
7,73,2860,-1,1.55,0.65,7,2.86,1
7,74,2888,-1,1.4,0.65,7,2.888,1
7,75,3153,-1,0.95,1.1,7,3.153,0
7,76,3830,1,1.4,0.95,7,3.83,0
7,77,2264,1,0.65,1.1,7,2.264,1
7,78,3281,1,0.95,2,7,3.281,1
7,79,3370,-1,0.95,0.5,7,3.37,1
7,80,2827,1,1.1,1.4,7,2.827,1
7,81,3953,1,2,2.45,7,3.953,1
7,82,6634,-1,1.25,1.1,7,6.634,1
7,83,3319,1,1.1,2.45,7,3.319,1
7,84,1949,-1,1.1,0.95,7,1.949,1
7,85,2403,-1,1.55,1.1,7,2.403,1
7,86,1743,1,0.95,1.1,7,1.743,1
7,87,2682,1,0.65,0.95,7,2.682,1
7,88,2349,-1,1.1,1.1,7,2.349,1
7,89,2716,1,1.55,0.95,7,2.716,0
7,90,6127,-1,1.85,1.1,7,6.127,1
7,91,2647,-1,1.1,1.1,7,2.647,1
7,92,3192,1,0.95,0.95,7,3.192,1
7,93,2950,-1,2.45,0.5,7,2.95,1
7,94,1723,1,2,1.25,7,1.723,0
7,95,2383,-1,0.95,1.1,7,2.383,0
7,96,1962,1,0.8,2,7,1.962,1
7,97,3720,-1,0.95,1.55,7,3.72,0
7,98,3087,-1,1.85,1.55,7,3.087,1
7,99,1255,-1,2.3,1.1,7,1.255,1
7,100,3736,1,0.95,0.5,7,3.736,0
7,101,1760,-1,1.1,0.95,7,1.76,1
7,102,1405,-1,1.1,0.8,7,1.405,1
7,103,2316,-1,0.95,1.1,7,2.316,0
7,104,1680,1,1.1,0.95,7,1.68,0
7,105,3267,1,1.25,2,7,3.267,1
7,106,3536,1,1.4,1.55,7,3.536,1
7,107,1581,1,1.1,1.1,7,1.581,1
7,108,1304,1,0.95,1.1,7,1.304,1
7,109,2650,1,0.65,1.4,7,2.65,1
7,110,1761,1,1.1,2,7,1.761,1
7,111,2423,1,2,0.95,7,2.423,0
7,112,1690,1,0.65,1.55,7,1.69,1
7,113,2103,-1,2.45,1.1,7,2.103,1
7,114,1738,1,1.1,1.1,7,1.738,1
7,115,3921,-1,1.1,0.35,7,3.921,1
7,116,2330,-1,2.3,0.95,7,2.33,1
7,117,1808,1,0.5,2,7,1.808,1
7,118,1669,1,1.1,1.1,7,1.669,1
7,119,2295,-1,1.1,1.55,7,2.295,0
8,0,6280,-1,1.85,1.7,8,6.28,1
8,1,3262,-1,1.25,1.25,8,3.262,1
8,2,2781,1,2.75,1.25,8,2.781,0
8,3,4808,1,2,0.8,8,4.808,0
8,4,3763,-1,1.4,2,8,3.763,0
8,5,2120,1,0.8,1.85,8,2.12,1
8,6,4439,1,0.8,1.25,8,4.439,1
8,7,2881,1,1.4,2.15,8,2.881,1
8,8,8834,1,2.3,1.85,8,8.834,0
8,9,2776,-1,2,1.25,8,2.776,1
8,10,1966,1,1.25,2,8,1.966,1
8,11,2514,-1,0.95,2.45,8,2.514,0
8,12,10046,1,1.7,1.7,8,10.046,1
8,13,4799,1,1.7,2.3,8,4.799,1
8,14,2205,-1,1.7,0.95,8,2.205,1
8,15,1809,1,2.15,2,8,1.809,0
8,16,5917,1,2.15,1.85,8,5.917,0
8,17,5962,1,1.1,1.25,8,5.962,1
8,18,3225,-1,1.4,1.25,8,3.225,1
8,19,3906,-1,1.1,2,8,3.906,0
8,20,9244,1,2.75,2,8,9.244,0
8,21,3254,-1,0.8,0.8,8,3.254,1
8,22,7203,1,2,0.95,8,7.203,0
8,23,3248,-1,1.4,1.4,8,3.248,1
8,24,9608,1,2.3,1.25,8,9.608,0
8,25,2238,-1,2.6,0.95,8,2.238,1
8,26,2748,-1,2.15,2,8,2.748,1
8,27,3612,1,1.7,0.95,8,3.612,0
8,28,2269,-1,2.45,0.95,8,2.269,1
8,29,1844,-1,1.85,2,8,1.844,0
8,30,3228,1,1.25,0.95,8,3.228,0
8,31,2352,1,2,2.3,8,2.352,1
8,32,6776,-1,2.45,2,8,6.776,1
8,33,2230,1,1.85,2.45,8,2.23,1
8,34,2359,-1,1.25,2.15,8,2.359,0
8,35,1954,1,1.85,1.1,8,1.954,0
8,36,3237,1,0.95,2.15,8,3.237,1
8,37,1781,-1,1.85,1.25,8,1.781,1
8,38,4639,1,2.3,2,8,4.639,0
8,39,2979,-1,1.7,2,8,2.979,0
8,40,1878,1,2,2.3,8,1.878,1
8,41,1993,-1,1.25,1.25,8,1.993,1
8,42,4066,1,1.85,2.45,8,4.066,1
8,43,1666,-1,1.25,1.1,8,1.666,1
8,44,2165,1,0.8,0.95,8,2.165,1
8,45,1595,1,1.7,2.15,8,1.595,1
8,46,1735,-1,1.1,1.85,8,1.735,0
8,47,1822,1,0.95,2.45,8,1.822,1
8,48,2027,-1,2,2.75,8,2.027,0
8,49,2905,-1,1.25,2.45,8,2.905,0
8,50,1535,-1,2,2.15,8,1.535,0
8,51,1528,-1,2,1.4,8,1.528,1
8,52,1831,1,0.95,1.7,8,1.831,1
8,53,2177,1,1.25,2,8,2.177,1
8,54,2255,-1,2.15,1.85,8,2.255,1
8,55,1615,1,0.8,2.3,8,1.615,1
8,56,2366,1,2.15,1.25,8,2.366,0
8,57,1262,-1,2,2.15,8,1.262,0
8,58,1535,1,2,1.1,8,1.535,0
8,59,1314,1,1.25,1.85,8,1.314,1
8,60,4734,-1,0.95,1.4,8,4.734,0
8,61,4219,-1,1.7,1.7,8,4.219,1
8,62,2133,-1,1.85,2.3,8,2.133,0
8,63,3283,1,1.25,1.4,8,3.283,1
8,64,1390,1,2,2.15,8,1.39,1
8,65,1494,1,1.85,1.25,8,1.494,0
8,66,1043,-1,2.6,2.6,8,1.043,1
8,67,1583,-1,1.25,2.75,8,1.583,0
8,68,1951,1,2.15,0.95,8,1.951,0
8,69,1185,-1,0.8,2,8,1.185,0
8,70,1984,-1,2,0.95,8,1.984,1
8,71,1339,-1,2.3,2,8,1.339,1
8,72,1286,-1,2.3,0.8,8,1.286,1
8,73,1944,-1,1.7,1.85,8,1.944,0
8,74,1853,1,0.8,0.95,8,1.853,1
8,75,2109,-1,0.95,1.7,8,2.109,0
8,76,1583,1,2.6,0.8,8,1.583,0
8,77,1535,1,1.1,0.95,8,1.535,0
8,78,1668,1,2.15,1.4,8,1.668,0
8,79,1780,-1,1.85,1.4,8,1.78,1
8,80,2931,1,1.85,2.15,8,2.931,1
8,81,2067,-1,1.85,0.8,8,2.067,1
8,82,1560,1,0.8,0.8,8,1.56,1
8,83,2001,-1,2.3,2,8,2.001,1
8,84,1441,1,2.45,0.95,8,1.441,0
8,85,1422,1,2,1.85,8,1.422,0
8,86,3294,-1,0.95,0.8,8,3.294,1
8,87,1937,-1,2.15,0.95,8,1.937,1
8,88,1752,1,0.8,2.3,8,1.752,1
8,89,1688,-1,2.3,0.8,8,1.688,1
8,90,1085,1,0.95,2,8,1.085,1
8,91,1381,1,2,1.7,8,1.381,0
8,92,1506,-1,2.45,1.85,8,1.506,1
8,93,1745,-1,0.8,2.6,8,1.745,0
8,94,2935,-1,1.25,2.3,8,2.935,0
8,95,1693,-1,2.15,1.7,8,1.693,1
8,96,9412,-1,2.45,1.25,8,9.412,1
8,97,2314,-1,1.85,2.15,8,2.314,0
8,98,1464,1,2.6,2.6,8,1.464,1
8,99,2187,1,2,2.45,8,2.187,1
8,100,1468,-1,0.95,0.8,8,1.468,1
8,101,1348,1,1.25,1.25,8,1.348,1
8,102,1945,1,1.4,1.4,8,1.945,1
8,103,1382,1,0.95,2.6,8,1.382,1
8,104,1886,-1,1.25,0.8,8,1.886,1
8,105,3569,-1,2,2.3,8,3.569,0
8,106,3349,-1,0.95,2.15,8,3.349,0
8,107,1595,1,1.4,1.85,8,1.595,1
8,108,1380,1,1.25,1.25,8,1.38,1
8,109,1668,1,1.4,2,8,1.668,1
8,110,2449,-1,0.95,1.25,8,2.449,0
8,111,1612,1,2.15,2,8,1.612,0
8,112,1495,-1,2.45,1.85,8,1.495,1
8,113,1574,1,1.4,0.95,8,1.574,0
8,114,2403,-1,0.95,1.1,8,2.403,0
8,115,1463,-1,0.95,2,8,1.463,0
8,116,2565,1,2,1.4,8,2.565,0
8,117,1537,-1,2.3,1.7,8,1.537,1
8,118,2100,-1,2,1.25,8,2.1,1
8,119,1383,-1,1.25,1.85,8,1.383,0
9,0,4076,1,0.5,0.65,9,4.076,1
9,1,7342,-1,0.95,0.8,9,7.342,1
9,2,7926,1,1.1,1.55,9,7.926,1
9,3,7862,-1,1.1,0.5,9,7.862,1
9,4,9211,-1,1.4,0.65,9,9.211,1
9,5,6437,-1,0.65,0.5,9,6.437,1
9,6,8887,1,0.8,0.8,9,8.887,1
9,7,7906,-1,0.35,0.2,9,7.906,1
9,8,7682,-1,0.65,0.5,9,7.682,1
9,9,12700,1,0.5,0.35,9,12.7,0
9,10,10860,-1,1.55,1.1,9,10.86,1
9,11,5201,-1,1.1,0.5,9,5.201,1
9,12,6160,-1,0.5,0.65,9,6.16,0
9,13,5265,1,0.35,0.8,9,5.265,1
9,14,7706,-1,1.4,0.8,9,7.706,1
9,15,7950,-1,0.95,0.65,9,7.95,1
9,16,3178,1,0.2,0.8,9,3.178,1
9,17,5989,1,0.8,1.4,9,5.989,1
9,18,3409,1,0.65,0.65,9,3.409,1
9,19,2703,1,0.65,0.95,9,2.703,1
9,20,6270,1,1.4,1.55,9,6.27,1
9,21,3970,-1,0.5,0.35,9,3.97,1
9,22,8677,1,0.65,0.8,9,8.677,1
9,23,5384,-1,1.4,0.65,9,5.384,1
9,24,4131,-1,1.55,0.8,9,4.131,1
9,25,7368,1,0.5,0.95,9,7.368,1
9,26,3027,-1,0.95,0.35,9,3.027,1
9,27,1947,-1,0.8,0.5,9,1.947,1
9,28,3251,-1,0.8,0.35,9,3.251,1
9,29,5353,1,0.65,1.1,9,5.353,1
9,30,2235,1,0.5,1.55,9,2.235,1
9,31,3470,-1,1.25,0.95,9,3.47,1
9,32,6025,-1,1.55,0.35,9,6.025,1
9,33,1555,-1,0.8,0.65,9,1.555,1
9,34,4056,1,0.8,1.4,9,4.056,1
9,35,2030,1,0.05,0.8,9,2.03,1
9,36,3565,1,0.65,0.8,9,3.565,1
9,37,1937,1,0.35,0.5,9,1.937,1
9,38,4421,1,0.65,1.25,9,4.421,1
9,39,3242,1,0.35,0.65,9,3.242,1
9,40,1697,1,0.35,1.55,9,1.697,1
9,41,1908,-1,0.65,0.65,9,1.908,1
9,42,1797,-1,0.8,0.5,9,1.797,1
9,43,2048,-1,0.8,0.5,9,2.048,1
9,44,1799,1,0.65,1.4,9,1.799,1
9,45,2018,-1,1.25,0.65,9,2.018,1
9,46,2057,-1,1.1,0.95,9,2.057,1
9,47,2199,1,0.2,0.35,9,2.199,1
9,48,5826,1,0.5,0.65,9,5.826,1
9,49,4129,-1,0.65,0.65,9,4.129,1
9,50,1566,1,0.65,1.4,9,1.566,1
9,51,2613,1,0.65,0.8,9,2.613,1
9,52,1468,1,0.2,1.55,9,1.468,1
9,53,1699,-1,1.55,0.65,9,1.699,1
9,54,1608,1,0.5,0.65,9,1.608,1
9,55,1556,-1,0.8,0.2,9,1.556,1
9,56,1669,1,0.05,0.35,9,1.669,1
9,57,1331,1,0.95,1.25,9,1.331,1
9,58,3185,-1,0.8,0.05,9,3.185,1
9,59,1955,-1,1.1,0.65,9,1.955,1
9,60,2036,1,0.8,1.4,9,2.036,1
9,61,1657,-1,0.8,0.65,9,1.657,1
9,62,1579,1,0.5,1.1,9,1.579,1
9,63,2195,1,1.1,1.55,9,2.195,1
9,64,1662,1,0.35,1.55,9,1.662,1
9,65,1752,-1,0.95,0.8,9,1.752,1
9,66,1536,1,0.35,0.8,9,1.536,1
9,67,5328,1,0.8,0.95,9,5.328,1
9,68,6890,-1,0.65,0.95,9,6.89,0
9,69,4058,-1,1.4,0.8,9,4.058,1
9,70,2141,-1,0.65,0.35,9,2.141,1
9,71,1434,-1,0.8,0.35,9,1.434,1
9,72,3682,-1,0.65,0.5,9,3.682,1
9,73,886,1,0.8,0.95,9,0.886,1
9,74,1430,-1,0.65,0.2,9,1.43,1
9,75,2134,-1,0.95,0.65,9,2.134,1
9,76,1446,1,0.35,1.4,9,1.446,1
9,77,1959,-1,1.1,0.8,9,1.959,1
9,78,3418,-1,0.35,0.5,9,3.418,0
9,79,3483,-1,1.55,1.55,9,3.483,1
9,80,1629,1,0.8,0.95,9,1.629,1
9,81,1546,1,0.5,1.1,9,1.546,1
9,82,1854,1,0.65,0.95,9,1.854,1
9,83,5188,1,0.8,0.65,9,5.188,0
9,84,1442,-1,1.55,0.5,9,1.442,1
9,85,1680,-1,1.55,1.4,9,1.68,1
9,86,1745,-1,0.35,0.05,9,1.745,1
9,87,1625,1,0.8,1.1,9,1.625,1
9,88,1612,1,0.2,0.65,9,1.612,1
9,89,1946,-1,0.65,0.35,9,1.946,1
9,90,1740,-1,1.4,0.35,9,1.74,1
9,91,1863,-1,0.95,0.65,9,1.863,1
9,92,1989,-1,1.4,0.8,9,1.989,1
9,93,1949,-1,0.95,0.5,9,1.949,1
9,94,1747,-1,0.65,0.5,9,1.747,1
9,95,2973,-1,1.1,0.5,9,2.973,1
9,96,2123,-1,1.55,1.1,9,2.123,1
9,97,1819,1,0.5,0.8,9,1.819,1
9,98,2069,1,0.8,1.55,9,2.069,1
9,99,1819,1,0.5,0.8,9,1.819,1
9,100,1802,-1,1.55,0.35,9,1.802,1
9,101,3558,-1,0.65,0.5,9,3.558,1
9,102,2240,-1,1.4,0.65,9,2.24,1
9,103,1748,1,0.35,0.5,9,1.748,1
9,104,1234,1,0.65,1.4,9,1.234,1
9,105,1470,1,0.5,0.8,9,1.47,1
9,106,2641,1,0.35,0.95,9,2.641,1
9,107,2270,1,1.55,1.55,9,2.27,1
9,108,4314,1,0.65,0.65,9,4.314,1
9,109,1667,-1,1.55,0.2,9,1.667,1
9,110,1672,-1,1.55,0.35,9,1.672,1
9,111,2124,-1,0.8,0.8,9,2.124,1
9,112,2135,-1,0.5,0.35,9,2.135,1
9,113,1664,1,0.65,1.55,9,1.664,1
9,114,1724,1,0.95,1.1,9,1.724,1
9,115,3955,-1,0.35,0.65,9,3.955,0
9,116,1780,-1,0.95,0.8,9,1.78,1
9,117,1572,1,0.5,1.1,9,1.572,1
9,118,1499,1,0.35,1.55,9,1.499,1
9,119,1501,1,0.5,0.65,9,1.501,1
10,0,3506,-1,0.5,0.05,10,3.506,1
10,1,2980,-1,1.55,0.5,10,2.98,1
10,2,3085,-1,2.15,1.7,10,3.085,1
10,3,4721,1,2.45,2,10,4.721,0
10,4,2865,1,2.15,2.45,10,2.865,1
10,5,3203,1,1.55,1.85,10,3.203,1
10,6,4214,1,2,1.1,10,4.214,0
10,7,3555,-1,1.7,1.7,10,3.555,1
10,8,2589,1,1.7,1.7,10,2.589,1
10,9,7639,-1,0.5,2.15,10,7.639,0
10,10,2773,1,0.5,1.7,10,2.773,1
10,11,2031,1,0.2,2.45,10,2.031,1
10,12,2572,-1,0.95,0.8,10,2.572,1
10,13,2365,1,0.8,2,10,2.365,1
10,14,2909,1,1.4,2.45,10,2.909,1
10,15,2928,-1,1.4,2.75,10,2.928,0
10,16,3911,1,2.15,2,10,3.911,0
10,17,3158,-1,1.85,2,10,3.158,0
10,18,4834,1,2.15,1.7,10,4.834,0
10,19,5582,-1,1.7,2.45,10,5.582,0
10,20,5670,-1,2,0.5,10,5.67,1
10,21,3809,1,0.35,0.95,10,3.809,1
10,22,2212,-1,1.4,1.1,10,2.212,1
10,23,3480,1,1.7,2.15,10,3.48,1
10,24,3696,1,1.85,2.45,10,3.696,1
10,25,6170,1,2,1.55,10,6.17,0
10,26,4571,-1,1.85,0.65,10,4.571,1
10,27,4636,-1,1.7,0.95,10,4.636,1
10,28,3689,-1,1.55,0.65,10,3.689,1
10,29,4681,-1,0.95,0.8,10,4.681,1
10,30,3393,1,1.25,1.7,10,3.393,1
10,31,9360,1,1.7,1.55,10,9.36,0
10,32,7062,-1,1.4,0.5,10,7.062,1
10,33,4169,1,0.05,2,10,4.169,1
10,34,2802,-1,2.15,1.25,10,2.802,1
10,35,3467,-1,0.95,2.45,10,3.467,0
10,36,3090,1,2.75,2.3,10,3.09,0
10,37,2204,1,1.85,0.95,10,2.204,0
10,38,1922,-1,2.3,1.55,10,1.922,1
10,39,5786,-1,1.55,1.1,10,5.786,1
10,40,2736,-1,1.7,0.5,10,2.736,1
10,41,2466,-1,2.15,0.5,10,2.466,1
10,42,3623,1,1.55,2,10,3.623,1
10,43,2424,1,0.8,2,10,2.424,1
10,44,2002,-1,2.45,0.2,10,2.002,1
10,45,1571,1,0.05,0.5,10,1.571,1
10,46,3560,-1,2.15,0.95,10,3.56,1
10,47,2252,1,1.1,2,10,2.252,1
10,48,1642,1,1.55,1.25,10,1.642,0
10,49,4497,1,2,2.3,10,4.497,1
10,50,1703,-1,1.1,2.45,10,1.703,0
10,51,1717,-1,2.3,0.35,10,1.717,1
10,52,2756,-1,0.5,1.55,10,2.756,0
10,53,2988,-1,1.1,1.55,10,2.988,0
10,54,2556,1,1.7,1.25,10,2.556,0
10,55,2471,-1,2,2,10,2.471,1
10,56,2101,1,1.1,1.7,10,2.101,1
10,57,3562,-1,1.7,1.85,10,3.562,0
10,58,4303,-1,0.95,1.1,10,4.303,0
10,59,1778,1,0.5,1.4,10,1.778,1
10,60,1344,1,0.65,1.55,10,1.344,1
10,61,1962,1,1.7,1.7,10,1.962,1
10,62,4684,-1,2.45,0.95,10,4.684,1
10,63,2466,-1,1.7,2,10,2.466,0
10,64,1986,-1,2.45,1.4,10,1.986,1
10,65,2107,-1,2.45,1.85,10,2.107,1
10,66,2329,-1,1.25,0.35,10,2.329,1
10,67,2312,1,0.35,2.45,10,2.312,1
10,68,1893,-1,2.15,1.7,10,1.893,1
10,69,2260,-1,2,0.05,10,2.26,1
10,70,1554,1,0.2,1.4,10,1.554,1
10,71,2578,1,0.95,1.7,10,2.578,1
10,72,2204,1,1.4,2,10,2.204,1
10,73,3943,1,0.5,1.85,10,3.943,1
10,74,2454,-1,2.45,1.7,10,2.454,1
10,75,2718,-1,2,2.15,10,2.718,0
10,76,2538,-1,1.25,1.7,10,2.538,0
10,77,1732,-1,2.45,1.85,10,1.732,1
10,78,3655,-1,1.7,2.15,10,3.655,0
10,79,4338,-1,1.7,1.25,10,4.338,1
10,80,4509,1,0.8,0.95,10,4.509,1
10,81,1608,1,0.35,2.3,10,1.608,1
10,82,1847,1,0.5,2,10,1.847,1
10,83,3415,-1,1.85,1.55,10,3.415,1
10,84,2469,-1,2.45,1.1,10,2.469,1
10,85,2127,1,1.7,1.25,10,2.127,0
10,86,3784,-1,1.25,1.7,10,3.784,0
10,87,4130,1,2,1.85,10,4.13,0
10,88,2072,-1,1.7,1.1,10,2.072,1
10,89,2461,1,1.55,2.3,10,2.461,1
10,90,3262,-1,2,0.8,10,3.262,1
10,91,2578,1,1.85,1.7,10,2.578,0
10,92,2521,1,2,1.7,10,2.521,0
10,93,2312,1,1.1,0.95,10,2.312,0
10,94,5048,-1,2,0.8,10,5.048,1
10,95,2326,1,1.1,1.4,10,2.326,1
10,96,2761,-1,2,2.45,10,2.761,0
10,97,1701,-1,2,1.4,10,1.701,1
10,98,1430,-1,2.3,2,10,1.43,1
10,99,2193,-1,2.45,2.15,10,2.193,1
10,100,1634,-1,2.3,2.75,10,1.634,0
10,101,3721,-1,0.95,0.35,10,3.721,1
10,102,2321,-1,1.25,1.55,10,2.321,0
10,103,3127,1,0.5,1.7,10,3.127,1
10,104,4937,-1,1.85,0.5,10,4.937,1
10,105,1991,1,1.85,2.45,10,1.991,1
10,106,1710,-1,2.45,0.35,10,1.71,1
10,107,2766,-1,2,2,10,2.766,1
10,108,1513,-1,1.7,0.5,10,1.513,1
10,109,2012,1,0.8,0.95,10,2.012,1
10,110,4019,-1,0.95,1.85,10,4.019,0
10,111,2201,1,1.25,2.15,10,2.201,1
10,112,2828,-1,1.7,1.7,10,2.828,1
10,113,3757,-1,1.55,1.7,10,3.757,0
10,114,1941,1,1.7,2.15,10,1.941,1
10,115,2158,1,2.75,1.4,10,2.158,0
10,116,2861,1,0.95,2.15,10,2.861,1
10,117,1471,-1,1.4,0.2,10,1.471,1
10,118,2292,1,0.65,1.85,10,2.292,1
10,119,2536,1,0.35,1.25,10,2.536,1
11,0,2760,-1,0.8,1.85,11,2.76,0
11,1,5105,1,1.1,1.1,11,5.105,1
11,2,4853,1,0.95,0.8,11,4.853,0
11,3,3052,-1,0.65,0.35,11,3.052,1
11,4,5478,1,0.95,0.5,11,5.478,0
11,5,2862,1,0.65,0.8,11,2.862,1
11,6,2763,1,0.9,0.95,11,2.763,1
11,7,3249,1,0.95,2.6,11,3.249,1
11,8,5690,1,1.1,1.25,11,5.69,1
11,9,2140,1,0.8,0.5,11,2.14,0
11,10,2729,1,0.5,0.8,11,2.729,1
11,11,1517,1,0.35,1.55,11,1.517,1
11,12,2032,-1,2,0.8,11,2.032,1
11,13,4849,-1,1.1,0.95,11,4.849,1
11,14,2284,-1,1.55,1.25,11,2.284,1
11,15,3563,-1,2.6,2.75,11,3.563,0
11,16,2064,-1,0.95,1.4,11,2.064,0
11,17,3308,-1,0.8,0.8,11,3.308,1
11,18,2133,-1,2,0.95,11,2.133,1
11,19,2093,1,0.95,2.6,11,2.093,1
11,20,2719,-1,0.95,0.8,11,2.719,1
11,21,2134,1,0.8,2.75,11,2.134,1
11,22,3938,-1,0.9,1.25,11,3.938,0
11,23,2338,-1,0.8,0.5,11,2.338,1
11,24,4431,1,1.55,2.15,11,4.431,1
11,25,3701,-1,1.85,1.1,11,3.701,1
11,26,3714,1,0.8,1.1,11,3.714,1
11,27,2911,1,0.95,1.1,11,2.911,1
11,28,2926,-1,1.55,0.95,11,2.926,1
11,29,4004,-1,1.55,0.65,11,4.004,1
11,30,3017,1,0.8,0.8,11,3.017,1
11,31,2236,-1,1.1,0.5,11,2.236,1
11,32,4422,-1,0.95,1.1,11,4.422,0
11,33,2606,-1,1.55,1.1,11,2.606,1
11,34,3975,-1,1.1,0.5,11,3.975,1
11,35,1816,-1,0.95,0.5,11,1.816,1
11,36,2089,-1,2.6,1.1,11,2.089,1
11,37,1671,1,1.4,2,11,1.671,1
11,38,3882,-1,2.15,0.8,11,3.882,1
11,39,3183,1,0.65,1.1,11,3.183,1
11,40,2048,-1,1.1,0.8,11,2.048,1
11,41,1358,1,0.95,2,11,1.358,1
11,42,1972,1,1.1,2.6,11,1.972,1
11,43,1506,1,0.5,0.95,11,1.506,1
11,44,1870,1,1.25,1.55,11,1.87,1
11,45,3827,1,1.55,2,11,3.827,1
11,46,4009,1,0.95,0.95,11,4.009,1
11,47,1823,-1,0.95,0.5,11,1.823,1
11,48,1891,-1,1.55,0.5,11,1.891,1
11,49,3176,-1,0.8,1.1,11,3.176,0
11,50,1522,1,1.85,2,11,1.522,1
11,51,1172,1,0.5,1.1,11,1.172,1
11,52,1541,1,1.1,1.85,11,1.541,1
11,53,1815,-1,1.1,1.55,11,1.815,0
11,54,1635,1,1.1,2.6,11,1.635,1
11,55,1287,1,0.8,2,11,1.287,1
11,56,1549,1,0.5,0.8,11,1.549,1
11,57,2081,-1,0.95,1.1,11,2.081,0
11,58,3162,1,1.25,0.95,11,3.162,0
11,59,1424,1,0.8,2.15,11,1.424,1
11,60,2061,-1,1.1,0.8,11,2.061,1
11,61,2998,-1,2.15,1.55,11,2.998,1
11,62,2476,-1,2,0.8,11,2.476,1
11,63,2307,1,0.65,1.55,11,2.307,1
11,64,2429,-1,1.1,0.65,11,2.429,1
11,65,1946,-1,0.8,0.35,11,1.946,1
11,66,1583,1,0.35,2.6,11,1.583,1
11,67,1881,1,0.8,0.95,11,1.881,1
11,68,4080,1,0.95,0.95,11,4.08,1
11,69,1583,-1,0.95,0.9,11,1.583,1
11,70,1862,-1,1.55,0.35,11,1.862,1
11,71,2190,-1,1.7,0.8,11,2.19,1
11,72,3909,1,0.95,1.7,11,3.909,1
11,73,2582,-1,2.15,0.95,11,2.582,1
11,74,2094,-1,0.8,0.5,11,2.094,1
11,75,1126,1,0.35,0.65,11,1.126,1
11,76,4553,-1,1.1,2.15,11,4.553,0
11,77,2060,-1,0.5,1.85,11,2.06,0
11,78,1614,-1,1.1,0.8,11,1.614,1
11,79,2439,1,0.8,0.65,11,2.439,0
11,80,2055,-1,2.6,1.1,11,2.055,1
11,81,1806,1,0.95,1.55,11,1.806,1
11,82,2709,1,0.8,0.95,11,2.709,1
11,83,5664,1,2.15,1.1,11,5.664,0
11,84,4047,-1,1.25,1.1,11,4.047,1
11,85,5885,-1,1.1,0.95,11,5.885,1
11,86,2649,-1,2,1.4,11,2.649,1
11,87,2196,1,2.75,2.6,11,2.196,0
11,88,1713,1,1.1,0.8,11,1.713,0
11,89,1688,-1,0.8,0.8,11,1.688,1
11,90,2312,-1,1.7,0.95,11,2.312,1
11,91,1614,1,0.8,1.1,11,1.614,1
11,92,1674,1,2.6,0.95,11,1.674,0
11,93,2117,1,0.95,2.15,11,2.117,1
11,94,3274,1,2.75,0.8,11,3.274,0
11,95,1867,-1,1.1,0.95,11,1.867,1
11,96,1273,1,0.8,1.7,11,1.273,1
11,97,1686,1,0.8,0.8,11,1.686,1
11,98,1439,1,0.35,0.8,11,1.439,1
11,99,1928,-1,1.85,0.8,11,1.928,1
11,100,2615,-1,0.95,1.25,11,2.615,0
11,101,2699,-1,0.5,0.8,11,2.699,0
11,102,2169,1,0.95,0.8,11,2.169,0
11,103,2593,-1,0.95,0.95,11,2.593,1
11,104,2311,-1,2.6,0.95,11,2.311,1
11,105,3911,-1,0.95,0.95,11,3.911,1
11,106,2211,1,1.85,0.5,11,2.211,0
11,107,1851,1,1.1,1.1,11,1.851,1
11,108,1526,1,0.8,1.1,11,1.526,1
11,109,1669,1,0.5,1.1,11,1.669,1
11,110,2369,-1,2.6,0.35,11,2.369,1
11,111,1317,1,0.8,0.95,11,1.317,1
11,112,2625,1,2,1.55,11,2.625,0
11,113,2430,-1,1.25,0.9,11,2.43,1
11,114,2106,1,0.8,2,11,2.106,1
11,115,1432,1,1.4,0.95,11,1.432,0
11,116,1304,1,0.5,0.95,11,1.304,1
11,117,2075,1,2,1.85,11,2.075,0
11,118,3202,1,0.5,0.95,11,3.202,1
11,119,926,1,0.5,1.55,11,0.926,1
12,0,3122,1,1.1,1.55,12,3.122,1
12,1,2113,-1,2,0.95,12,2.113,1
12,2,1817,1,0.95,1.25,12,1.817,1
12,3,13467,1,2,1.1,12,13.467,0
12,4,2553,1,0.5,0.95,12,2.553,1
12,5,3777,-1,1.55,0.95,12,3.777,1
12,6,2998,-1,1.1,0.8,12,2.998,1
12,7,3867,1,3,1.55,12,3.867,0
12,8,3850,1,1.25,1.1,12,3.85,0
12,9,3788,-1,1.25,0.95,12,3.788,1
12,10,3168,-1,1.25,0.8,12,3.168,1
12,11,5483,1,0.8,0.95,12,5.483,1
12,12,5333,-1,1.4,0.95,12,5.333,1
12,13,3084,1,0.95,1.1,12,3.084,1
12,14,2038,1,1.1,2,12,2.038,1
12,15,2726,1,0.65,1.1,12,2.726,1
12,16,2985,1,1.1,1.1,12,2.985,1
12,17,3928,1,1.25,1.25,12,3.928,1
12,18,2503,-1,1.1,0.65,12,2.503,1
12,19,2530,1,0.95,3,12,2.53,1
12,20,7257,1,0.8,1.55,12,7.257,1
12,21,3053,-1,1.1,0.5,12,3.053,1
12,22,5096,1,0.95,1.4,12,5.096,1
12,23,2094,1,1.1,2.3,12,2.094,1
12,24,2974,1,0.95,1.1,12,2.974,1
12,25,3254,-1,1.55,0.8,12,3.254,1
12,26,1982,-1,1.55,1.55,12,1.982,1
12,27,5552,1,1.1,1.4,12,5.552,1
12,28,5590,1,1.4,1.1,12,5.59,0
12,29,9101,1,1.25,1.1,12,9.101,0
12,30,4241,-1,0.95,0.8,12,4.241,1
12,31,6322,1,1.4,2,12,6.322,1
12,32,4835,1,1.1,1.1,12,4.835,1
12,33,3087,-1,0.95,0.95,12,3.087,1
12,34,2451,-1,1.55,1.25,12,2.451,1
12,35,13101,-1,1.1,1.1,12,13.101,1
12,36,3194,1,0.95,1.1,12,3.194,1
12,37,3344,-1,1.1,0.95,12,3.344,1
12,38,1457,-1,1.1,0.95,12,1.457,1
12,39,2485,-1,0.95,0.95,12,2.485,1
12,40,2982,-1,1.1,1.25,12,2.982,0
12,41,3131,-1,1.1,0.8,12,3.131,1
12,42,2125,1,0.95,1.4,12,2.125,1
12,43,1741,1,1.25,0.95,12,1.741,0
12,44,7726,1,1.25,1.55,12,7.726,1
12,45,2261,1,0.5,1.1,12,2.261,1
12,46,1268,-1,1.1,0.95,12,1.268,1
12,47,3110,1,1.25,1.1,12,3.11,0
12,48,2557,-1,1.4,1.25,12,2.557,1
12,49,3128,-1,1.1,1.4,12,3.128,0
12,50,2172,-1,1.1,1.1,12,2.172,1
12,51,2781,1,1.4,0.8,12,2.781,0
12,52,1806,-1,2,1.1,12,1.806,1
12,53,1993,1,0.8,1.1,12,1.993,1
12,54,2642,1,0.95,0.95,12,2.642,1
12,55,3105,-1,1.1,1.1,12,3.105,1
12,56,4473,-1,0.95,1.1,12,4.473,0
12,57,1413,-1,2.3,1.1,12,1.413,1
12,58,1600,-1,1.55,0.8,12,1.6,1
12,59,1747,1,1.55,1.55,12,1.747,1
12,60,4233,1,2,2.3,12,4.233,1
12,61,2041,-1,1.1,1.1,12,2.041,1
12,62,6414,1,1.1,1.1,12,6.414,1
12,63,2066,1,0.95,1.1,12,2.066,1
12,64,3344,-1,1.25,1.1,12,3.344,1
12,65,1771,-1,2,0.8,12,1.771,1
12,66,4325,-1,0.95,0.8,12,4.325,1
12,67,1653,1,0.65,1.1,12,1.653,1
12,68,1831,1,0.95,0.95,12,1.831,1
12,69,2366,-1,1.85,1.1,12,2.366,1
12,70,3928,-1,0.95,1.85,12,3.928,0
12,71,745,-1,1.4,1.1,12,0.745,1
12,72,589,-1,1.1,2,12,0.589,0
12,73,2382,-1,1.1,0.95,12,2.382,1
12,74,2128,-1,1.1,1.25,12,2.128,0
12,75,1814,1,1.1,1.1,12,1.814,1
12,76,1919,1,0.8,1.55,12,1.919,1
12,77,1829,1,0.8,1.25,12,1.829,1
12,78,5215,1,0.95,1.25,12,5.215,1
12,79,1722,1,0.95,1.1,12,1.722,1
12,80,1948,-1,1.1,1.25,12,1.948,0
12,81,2361,-1,1.25,1.25,12,2.361,1
12,82,1359,-1,1.4,0.95,12,1.359,1
12,83,3505,-1,1.25,0.95,12,3.505,1
12,84,1759,1,1.25,1.4,12,1.759,1
12,85,2437,-1,1.4,0.95,12,2.437,1
12,86,1846,1,1.1,2,12,1.846,1
12,87,6845,-1,1.1,0.95,12,6.845,1
12,88,3491,-1,1.55,1.1,12,3.491,1
12,89,2384,1,1.1,1.1,12,2.384,1
12,90,1764,1,1.1,0.8,12,1.764,0
12,91,2886,-1,1.1,0.65,12,2.886,1
12,92,2924,-1,2.3,2,12,2.924,1
12,93,1612,-1,1.1,1.1,12,1.612,1
12,94,1905,-1,0.95,1.25,12,1.905,0
12,95,2184,-1,1.1,1.85,12,2.184,0
12,96,1669,1,0.95,1.1,12,1.669,1
12,97,2722,-1,1.1,2,12,2.722,0
12,98,4781,1,0.8,1.4,12,4.781,1
12,99,923,-1,0.8,2,12,0.923,0
12,100,2715,1,0.8,0.95,12,2.715,1
12,101,1932,-1,1.1,0.95,12,1.932,1
12,102,2508,1,1.55,3,12,2.508,1
12,103,1277,-1,2,1.1,12,1.277,1
12,104,2415,-1,3,0.95,12,2.415,1
12,105,5030,-1,2,1.1,12,5.03,1
12,106,1638,1,1.1,1.1,12,1.638,1
12,107,1720,-1,0.8,1.1,12,1.72,0
12,108,1208,-1,0.8,1.1,12,1.208,0
12,109,6303,1,0.95,0.5,12,6.303,0
12,110,1810,1,0.95,1.55,12,1.81,1
12,111,2031,-1,1.1,1.1,12,2.031,1
12,112,1511,1,0.95,2,12,1.511,1
12,113,1582,-1,2,1.4,12,1.582,1
12,114,1433,-1,1.1,1.1,12,1.433,1
12,115,1773,-1,1.1,1.1,12,1.773,1
12,116,1225,-1,1.85,0.95,12,1.225,1
12,117,2914,-1,1.1,0.95,12,2.914,1
12,118,1666,1,0.95,1.4,12,1.666,1
12,119,3874,-1,1.1,1.25,12,3.874,0
13,0,3026,-1,1.55,0.95,13,3.026,1
13,1,6085,-1,1.4,0.65,13,6.085,1
13,2,2973,1,0.5,1.25,13,2.973,1
13,3,2403,-1,1.7,0.2,13,2.403,1
13,4,4994,-1,1.4,1.25,13,4.994,1
13,5,8129,1,0.8,1.1,13,8.129,1
13,6,2724,1,0.2,0.95,13,2.724,1
13,7,2958,1,0.65,1.7,13,2.958,1
13,8,6325,-1,0.8,0.8,13,6.325,1
13,9,2982,-1,1.55,0.95,13,2.982,1
13,10,2517,1,0.5,1.7,13,2.517,1
13,11,4855,-1,0.8,0.5,13,4.855,1
13,12,5389,-1,1.4,0.65,13,5.389,1
13,13,8752,-1,0.65,0.5,13,8.752,1
13,14,6138,1,1.4,0.8,13,6.138,0
13,15,11077,1,0.8,1.7,13,11.077,1
13,16,8571,-1,1.7,1.4,13,8.571,1
13,17,2352,1,0.35,1.4,13,2.352,1
13,18,2796,1,0.65,1.7,13,2.796,1
13,19,7217,-1,1.55,1.1,13,7.217,1
13,20,2216,-1,0.45,0.15,13,2.216,1
13,21,4222,1,1.4,1.4,13,4.222,1
13,22,8159,1,1.25,1.55,13,8.159,1
13,23,2066,-1,0.95,0.35,13,2.066,1
13,24,6417,-1,0.8,0.65,13,6.417,1
13,25,3729,1,1.7,2,13,3.729,1
13,26,2155,-1,1.55,0.8,13,2.155,1
13,27,1420,-1,1.55,0.5,13,1.42,1
13,28,2756,-1,0.95,0.95,13,2.756,1
13,29,5361,-1,0.65,0.35,13,5.361,1
13,30,2690,-1,2,0.95,13,2.69,1
13,31,3691,1,1.7,2,13,3.691,1
13,32,3081,1,0.8,0.95,13,3.081,1
13,33,3734,-1,1.85,1.55,13,3.734,1
13,34,1798,1,1.25,0.65,13,1.798,0
13,35,7156,-1,0.5,1.7,13,7.156,0
13,36,3874,1,0.45,1.4,13,3.874,1
13,37,1818,-1,1.7,1.25,13,1.818,1
13,38,2288,1,0,0.8,13,2.288,1
13,39,1531,-1,1.7,0.95,13,1.531,1
13,40,1843,-1,2,0.95,13,1.843,1
13,41,2659,1,0.65,1.25,13,2.659,1
13,42,6096,1,1.55,1.7,13,6.096,1
13,43,1394,-1,1.7,0.65,13,1.394,1
13,44,1685,-1,0.5,0.95,13,1.685,0
13,45,5368,-1,1.4,1.4,13,5.368,1
13,46,3149,1,0.95,1.55,13,3.149,1
13,47,4200,1,1.1,1.55,13,4.2,1
13,48,1871,-1,0.65,0.2,13,1.871,1
13,49,5307,1,2,1.7,13,5.307,0
13,50,1129,1,0.15,1.7,13,1.129,1
13,51,3542,-1,1.7,1.1,13,3.542,1
13,52,3093,-1,0.65,0.95,13,3.093,0
13,53,4561,-1,1.25,0.5,13,4.561,1
13,54,1770,-1,1.4,0.35,13,1.77,1
13,55,1420,-1,1.7,0.5,13,1.42,1
13,56,3153,1,1.25,1.4,13,3.153,1
13,57,3412,1,0.95,1.85,13,3.412,1
13,58,2581,1,1.7,1.55,13,2.581,0
13,59,2098,-1,1.7,0.65,13,2.098,1
13,60,3913,-1,0.95,0.65,13,3.913,1
13,61,2231,1,0.95,1.7,13,2.231,1
13,62,2624,1,0.5,0.5,13,2.624,1
13,63,4743,-1,1.1,0.95,13,4.743,1
13,64,1592,-1,1.25,0.5,13,1.592,1
13,65,3100,1,0.35,1.7,13,3.1,1
13,66,4751,1,1.7,0.8,13,4.751,0
13,67,3495,-1,1.1,0.8,13,3.495,1
13,68,1791,1,0.2,1.7,13,1.791,1
13,69,2888,1,0.5,0.8,13,2.888,1
13,70,1503,1,0.35,0.95,13,1.503,1
13,71,1312,1,0.35,0.65,13,1.312,1
13,72,2402,1,0.2,1.7,13,2.402,1
13,73,1841,-1,0.8,1.4,13,1.841,0
13,74,2094,1,0,1.55,13,2.094,1
13,75,2247,1,0.15,0.45,13,2.247,1
13,76,2259,1,0.65,0.8,13,2.259,1
13,77,2496,1,1.25,1.7,13,2.496,1
13,78,3827,-1,1.55,1.7,13,3.827,0
13,79,2171,-1,0.65,1.25,13,2.171,0
13,80,4286,-1,1.85,0.95,13,4.286,1
13,81,1674,-1,1.55,0,13,1.674,1
13,82,2642,-1,0.65,0.95,13,2.642,0
13,83,1775,1,1.7,1.55,13,1.775,0
13,84,1913,1,0.8,0.8,13,1.913,1
13,85,1524,1,0.5,1.55,13,1.524,1
13,86,3266,1,1.4,1.7,13,3.266,1
13,87,2329,1,0.8,1.55,13,2.329,1
13,88,1653,-1,1.7,0.2,13,1.653,1
13,89,3485,-1,1.25,0.65,13,3.485,1
13,90,3184,1,0.95,1.55,13,3.184,1
13,91,2099,1,0.95,0.65,13,2.099,0
13,92,1136,1,0.95,1.55,13,1.136,1
13,93,3904,-1,1.55,1.25,13,3.904,1
13,94,3114,-1,1.25,1.4,13,3.114,0
13,95,1077,-1,0.8,0,13,1.077,1
13,96,4534,1,1.55,1.85,13,4.534,1
13,97,3365,1,1.1,1.7,13,3.365,1
13,98,4319,-1,1.7,1.55,13,4.319,1
13,99,1701,-1,0.95,0.2,13,1.701,1
13,100,2377,1,0.95,0.95,13,2.377,1
13,101,1792,-1,0.5,0.5,13,1.792,1
13,102,4765,-1,1.55,0.95,13,4.765,1
13,103,4563,-1,0.5,1.25,13,4.563,0
13,104,1163,1,0.2,0.65,13,1.163,1
13,105,2835,-1,1.4,0.45,13,2.835,1
13,106,2615,1,0.95,2,13,2.615,1
13,107,2472,-1,1.7,0.35,13,2.472,1
13,108,1629,-1,1.7,0.15,13,1.629,1
13,109,2520,1,0.95,2,13,2.52,1
13,110,1672,1,0.95,1.1,13,1.672,1
13,111,6876,-1,1.4,1.25,13,6.876,1
13,112,2783,1,1.7,0.5,13,2.783,0
13,113,1208,1,0.5,0.65,13,1.208,1
13,114,4702,1,0.95,0.8,13,4.702,0
13,115,2309,-1,1.55,1.7,13,2.309,0
13,116,5914,1,0.65,1.4,13,5.914,1
13,117,1745,1,0.95,0.5,13,1.745,0
13,118,2538,-1,2,1.7,13,2.538,1
13,119,6103,1,0.65,1.4,13,6.103,1
14,0,2347,1,0,1.7,14,2.347,1
14,1,4609,-1,2.15,1.85,14,4.609,1
14,2,2277,-1,1.85,0.95,14,2.277,1
14,3,4343,1,1.85,2.15,14,4.343,1
14,4,1852,-1,2.45,0.95,14,1.852,1
14,5,3006,1,1.25,3,14,3.006,1
14,6,3997,1,1.85,1.85,14,3.997,1
14,7,2303,1,1.7,1.85,14,2.303,1
14,8,2471,-1,1.7,0.95,14,2.471,1
14,9,2984,-1,2.3,1.7,14,2.984,1
14,10,2887,-1,2.15,1.55,14,2.887,1
14,11,3416,1,0,1.4,14,3.416,1
14,12,3238,-1,2,2.15,14,3.238,0
14,13,4059,1,2,2,14,4.059,1
14,14,5618,-1,3,1.7,14,5.618,1
14,15,2367,1,2.15,2,14,2.367,0
14,16,4644,-1,2.45,2,14,4.644,1
14,17,2863,1,1.25,1.7,14,2.863,1
14,18,5322,-1,2.3,1.85,14,5.322,1
14,19,3601,-1,0.95,1.55,14,3.601,0
14,20,3177,-1,2,1.1,14,3.177,1
14,21,2087,1,1.1,1.85,14,2.087,1
14,22,1881,-1,2,1.4,14,1.881,1
14,23,2636,1,0,2,14,2.636,1
14,24,2977,1,2,2.15,14,2.977,1
14,25,1999,-1,2.45,1.1,14,1.999,1
14,26,1680,-1,1.7,0,14,1.68,1
14,27,1682,-1,2.45,0,14,1.682,1
14,28,2004,-1,0.95,1.1,14,2.004,0
14,29,3834,1,0,1.85,14,3.834,1
14,30,2209,1,0.35,2.15,14,2.209,1
14,31,3455,1,1.55,2.6,14,3.455,1
14,32,1943,-1,3,2,14,1.943,1
14,33,2699,-1,1.55,0.95,14,2.699,1
14,34,2353,-1,1.25,1.1,14,2.353,1
14,35,1816,1,0.8,1.7,14,1.816,1
14,36,2326,1,1.7,2.3,14,2.326,1
14,37,1670,-1,1.85,1.25,14,1.67,1
14,38,1581,1,0.95,2.15,14,1.581,1
14,39,3447,1,1.25,2,14,3.447,1
14,40,2660,1,1.4,2,14,2.66,1
14,41,5081,1,2,2.45,14,5.081,1
14,42,1518,1,0.95,2.45,14,1.518,1
14,43,5153,-1,3,2.3,14,5.153,1
14,44,3875,1,2.6,2.45,14,3.875,0
14,45,3791,-1,2.45,0,14,3.791,1
14,46,11142,1,1.1,1.25,14,11.142,1
14,47,2744,1,1.55,2.15,14,2.744,1
14,48,3385,1,1.25,1.1,14,3.385,0
14,49,5527,1,1.7,1.7,14,5.527,1
14,50,4437,-1,2,1.7,14,4.437,1
14,51,2800,1,0.95,1.55,14,2.8,1
14,52,8278,-1,2.15,0.8,14,8.278,1
14,53,2593,1,1.7,2,14,2.593,1
14,54,5415,1,1.7,3,14,5.415,1
14,55,7503,1,0.95,2,14,7.503,1
14,56,1485,-1,1.85,0,14,1.485,1
14,57,1678,1,0.95,1.7,14,1.678,1
14,58,1670,-1,2.15,0.35,14,1.67,1
14,59,1435,-1,1.85,0,14,1.435,1
14,60,3075,-1,0.35,0,14,3.075,1
14,61,2836,1,1.85,2.3,14,2.836,1
14,62,2918,-1,1.7,1.25,14,2.918,1
14,63,3368,1,2.3,2.45,14,3.368,1
14,64,3790,1,1.1,2.45,14,3.79,1
14,65,3975,-1,2.15,2,14,3.975,1
14,66,10704,1,2.15,2,14,10.704,0
14,67,2259,-1,2.15,1.1,14,2.259,1
14,68,4703,1,2,1.85,14,4.703,0
14,69,3892,-1,1.55,1.1,14,3.892,1
14,70,2285,1,1.1,0.95,14,2.285,0
14,71,1677,-1,2,0,14,1.677,1
14,72,5637,-1,1.7,2.15,14,5.637,0
14,73,2500,1,1.1,2,14,2.5,1
14,74,1617,-1,2,0.95,14,1.617,1
14,75,6712,-1,2.15,1.85,14,6.712,1
14,76,1661,-1,0.95,0,14,1.661,1
14,77,2060,1,1.25,1.85,14,2.06,1
14,78,4647,1,2.15,2.45,14,4.647,1
14,79,3879,-1,2.3,1.55,14,3.879,1
14,80,2797,1,1.1,1.25,14,2.797,1
14,81,2269,1,1.55,2.3,14,2.269,1
14,82,3319,1,0,0.35,14,3.319,1
14,83,2630,1,0,2.45,14,2.63,1
14,84,4088,1,2.15,1.7,14,4.088,0
14,85,1656,-1,1.85,2,14,1.656,0
14,86,2743,1,2.3,3,14,2.743,1
14,87,2090,-1,1.7,0.8,14,2.09,1
14,88,2497,1,1.1,2.15,14,2.497,1
14,89,3452,1,0.95,1.85,14,3.452,1
14,90,1385,-1,3,1.25,14,1.385,1
14,91,1457,-1,2,1.7,14,1.457,1
14,92,2053,1,1.7,2.3,14,2.053,1
14,93,1590,-1,2,2,14,1.59,1
14,94,1725,-1,2.3,1.7,14,1.725,1
14,95,3526,-1,2,2.15,14,3.526,0
14,96,1481,-1,2.45,2.6,14,1.481,0
14,97,4475,-1,1.85,1.7,14,4.475,1
14,98,2768,1,0.95,2,14,2.768,1
14,99,2070,1,0,0.95,14,2.07,1
14,100,1682,-1,1.4,0,14,1.682,1
14,101,2798,-1,2.45,2.3,14,2.798,1
14,102,2243,1,1.85,2.15,14,2.243,1
14,103,2567,-1,2.6,1.55,14,2.567,1
14,104,2400,-1,1.85,1.1,14,2.4,1
14,105,1727,-1,2.15,0.95,14,1.727,1
14,106,1333,-1,1.7,1.7,14,1.333,1
14,107,1451,-1,2.45,2.15,14,1.451,1
14,108,3171,-1,2,0.95,14,3.171,1
14,109,1823,1,0,1.85,14,1.823,1
14,110,1639,-1,1.7,2,14,1.639,0
14,111,1509,1,0,1.7,14,1.509,1
14,112,1789,1,0,2.45,14,1.789,1
14,113,1537,-1,1.7,0,14,1.537,1
14,114,1819,1,1.1,1.55,14,1.819,1
14,115,1500,1,1.55,0.95,14,1.5,0
14,116,1563,-1,2,1.25,14,1.563,1
14,117,1570,-1,1.85,1.85,14,1.57,1
14,118,1690,1,0.8,2.15,14,1.69,1
14,119,1511,1,2,3,14,1.511,1
15,0,5398,-1,0.35,0.95,15,5.398,0
15,1,3681,-1,2,1.55,15,3.681,1
15,2,10254,1,1.25,0.35,15,10.254,0
15,3,7236,1,0,0,15,7.236,1
15,4,3581,1,0,2.15,15,3.581,1
15,5,6010,-1,1.4,0.8,15,6.01,1
15,6,2128,-1,2.6,0.2,15,2.128,1
15,7,3927,1,0.05,2.75,15,3.927,1
15,8,2434,-1,3,0.35,15,2.434,1
15,9,2731,1,0.05,2.15,15,2.731,1
15,10,3431,-1,0.05,0,15,3.431,1
15,11,5329,1,0.05,0.2,15,5.329,1
15,12,2264,-1,2,0,15,2.264,1
15,13,4634,-1,0.15,0.2,15,4.634,0
15,14,4420,1,0.05,0.05,15,4.42,1
15,15,4781,-1,1.55,0.95,15,4.781,1
15,16,2578,1,0.15,1.55,15,2.578,1
15,17,1730,-1,0.95,0.05,15,1.73,1
15,18,4365,1,0.35,0.05,15,4.365,0
15,19,6379,-1,2.15,0.95,15,6.379,1
15,20,5608,1,0.95,0.05,15,5.608,0
15,21,2135,-1,2.6,1.25,15,2.135,1
15,22,4357,1,0.05,0.05,15,4.357,1
15,23,5648,-1,0.35,0.2,15,5.648,1
15,24,3293,1,0.05,1.55,15,3.293,1
15,25,4716,-1,0.35,0.15,15,4.716,1
15,26,2743,1,0.15,0.65,15,2.743,1
15,27,9481,1,2,2,15,9.481,1
15,28,2364,-1,0.05,0.35,15,2.364,0
15,29,3458,1,0.05,0.65,15,3.458,1
15,30,4363,-1,1.4,0.15,15,4.363,1
15,31,4529,-1,2,0.05,15,4.529,1
15,32,5752,-1,0.65,1.55,15,5.752,0
15,33,3636,1,0.65,3,15,3.636,1
15,34,2780,-1,0.05,0.15,15,2.78,0
15,35,2434,1,0.05,1.55,15,2.434,1
15,36,6016,1,0.65,2.9,15,6.016,1
15,37,3525,1,0.35,0.8,15,3.525,1
15,38,13395,-1,0.35,0.65,15,13.395,0
15,39,4722,-1,0.95,0.05,15,4.722,1
15,40,2537,1,1.55,0.15,15,2.537,0
15,41,2947,1,0.95,2.15,15,2.947,1
15,42,1619,-1,0.05,0.05,15,1.619,1
15,43,1767,1,0,0.95,15,1.767,1
15,44,1357,-1,3,0.05,15,1.357,1
15,45,2327,1,1.25,2.6,15,2.327,1
15,46,1295,-1,1.85,0.95,15,1.295,1
15,47,1505,-1,0.35,1.25,15,1.505,0
15,48,1539,-1,1.55,0.05,15,1.539,1
15,49,1917,1,0.05,2,15,1.917,1
15,50,1641,-1,2.15,0,15,1.641,1
15,51,5970,1,2,2,15,5.97,1
15,52,1399,-1,2.9,0,15,1.399,1
15,53,2385,1,0.05,0.65,15,2.385,1
15,54,2077,1,0.05,0.65,15,2.077,1
15,55,3838,-1,0.65,0.35,15,3.838,1
15,56,2894,-1,0,0,15,2.894,1
15,57,3646,-1,0,0.2,15,3.646,0
15,58,2923,1,0.05,0.95,15,2.923,1
15,59,1362,-1,2.15,0.05,15,1.362,1
15,60,1653,1,0,1.85,15,1.653,1
15,61,2215,-1,0.05,0.05,15,2.215,1
15,62,1651,-1,0.65,0.15,15,1.651,1
15,63,1286,-1,2.75,0.05,15,1.286,1
15,64,1974,1,0.95,3,15,1.974,1
15,65,1744,1,0.65,2.15,15,1.744,1
15,66,2072,1,0.95,1.55,15,2.072,1
15,67,2848,1,0.2,2.15,15,2.848,1
15,68,2096,1,0.15,0.05,15,2.096,0
15,69,2181,1,0.05,0,15,2.181,0
15,70,1402,-1,0.35,0.05,15,1.402,1
15,71,2439,-1,1.55,0.05,15,2.439,1
15,72,1342,-1,2.15,1.55,15,1.342,1
15,73,1279,-1,2.75,0.65,15,1.279,1
15,74,1656,-1,0.2,0.05,15,1.656,1
15,75,3002,1,0.8,1.4,15,3.002,1
15,76,1997,1,0.05,0.95,15,1.997,1
15,77,2417,1,0,0.05,15,2.417,1
15,78,1851,1,0.2,2.6,15,1.851,1
15,79,5824,1,0.35,0.05,15,5.824,0
15,80,5859,-1,0.8,0.35,15,5.859,1
15,81,3315,1,0.2,0,15,3.315,0
15,82,2559,-1,3,0.95,15,2.559,1
15,83,4225,-1,1.55,2,15,4.225,0
15,84,2053,-1,0.65,0.05,15,2.053,1
15,85,2050,1,0.2,0.15,15,2.05,0
15,86,1325,-1,1.85,0,15,1.325,1
15,87,1781,1,0.05,0.35,15,1.781,1
15,88,2057,1,0.05,0.05,15,2.057,1
15,89,2343,-1,0.05,0.35,15,2.343,0
15,90,1676,1,0.05,2,15,1.676,1
15,91,7734,-1,0.95,0.05,15,7.734,1
15,92,1523,-1,2.15,0.2,15,1.523,1
15,93,1913,1,0.05,3,15,1.913,1
15,94,3258,1,0.05,0.05,15,3.258,1
15,95,1869,1,1.55,0.65,15,1.869,0
15,96,1785,1,0.05,0.95,15,1.785,1
15,97,1864,-1,0.65,0.05,15,1.864,1
15,98,1620,1,1.55,2.15,15,1.62,1
15,99,1421,-1,0.05,0.05,15,1.421,1
15,100,2821,1,0.05,1.55,15,2.821,1
15,101,1837,-1,2,0.05,15,1.837,1
15,102,2143,-1,0,0.05,15,2.143,0
15,103,2303,1,0.35,3,15,2.303,1
15,104,1635,-1,0.65,0.05,15,1.635,1
15,105,1685,1,0.15,0.35,15,1.685,1
15,106,1497,-1,0.05,0.95,15,1.497,0
15,107,1461,1,0.65,2.75,15,1.461,1
15,108,1409,-1,0.95,0,15,1.409,1
15,109,1371,-1,1.55,0.05,15,1.371,1
15,110,2282,1,0.05,0.05,15,2.282,1
15,111,1547,1,0.2,0.35,15,1.547,1
15,112,1484,1,0.15,1.4,15,1.484,1
15,113,2392,1,0.95,0.35,15,2.392,0
15,114,1386,-1,2.15,0.65,15,1.386,1
15,115,1743,1,0,2.9,15,1.743,1
15,116,1569,1,0.95,1.85,15,1.569,1
15,117,1427,-1,3,0.65,15,1.427,1
15,118,2294,1,0,2,15,2.294,1
15,119,1490,-1,2.9,0.65,15,1.49,1
16,0,5625,1,0.5,0.65,16,5.625,1
16,1,3011,-1,0.5,0.2,16,3.011,1
16,2,2836,-1,0.8,0.05,16,2.836,1
16,3,2489,-1,0.35,0,16,2.489,1
16,4,2592,1,0.35,0.2,16,2.592,0
16,5,6979,1,0,0.2,16,6.979,1
16,6,2678,-1,0.8,0,16,2.678,1
16,7,2408,1,0,0.5,16,2.408,1
16,8,5748,-1,0.05,0.2,16,5.748,0
16,9,2369,-1,0.35,0,16,2.369,1
16,10,2099,1,0.05,0.35,16,2.099,1
16,11,2751,-1,0.65,0.05,16,2.751,1
16,12,6040,1,0.5,0.35,16,6.04,0
16,13,3337,-1,0.5,0.2,16,3.337,1
16,14,3756,-1,0.95,0.2,16,3.756,1
16,15,5066,-1,0.2,0.2,16,5.066,1
16,16,1630,1,0,0.95,16,1.63,1
16,17,4238,-1,0.8,0.95,16,4.238,0
16,18,5891,-1,0.2,0.2,16,5.891,1
16,19,5531,1,0.35,0.5,16,5.531,1
16,20,4735,-1,0,0.05,16,4.735,0
16,21,4583,-1,0.2,0.05,16,4.583,1
16,22,2663,-1,0.5,0.2,16,2.663,1
16,23,1640,1,0,0.2,16,1.64,1
16,24,1840,1,0,0.95,16,1.84,1
16,25,3607,1,0,0.05,16,3.607,1
16,26,6972,1,0,0,16,6.972,1
16,27,2353,-1,0.65,0,16,2.353,1
16,28,1913,1,0.2,0.35,16,1.913,1
16,29,1857,1,0,0.05,16,1.857,1
16,30,2072,1,0,0.5,16,2.072,1
16,31,3879,-1,0.05,0.05,16,3.879,1
16,32,1814,-1,0.65,0.35,16,1.814,1
16,33,1994,-1,0,0,16,1.994,1
16,34,3409,-1,0.2,0,16,3.409,1
16,35,1475,1,0,0.2,16,1.475,1
16,36,6676,1,0.05,0,16,6.676,0
16,37,3013,-1,0,0,16,3.013,1
16,38,2350,-1,0.5,0,16,2.35,1
16,39,2477,1,0,0.35,16,2.477,1
16,40,1774,1,0.2,0.5,16,1.774,1
16,41,1889,-1,0.2,0.35,16,1.889,0
16,42,1475,1,0,0.35,16,1.475,1
16,43,3620,-1,0,0,16,3.62,1
16,44,4655,1,0.2,0,16,4.655,0
16,45,1990,-1,0.05,0,16,1.99,1
16,46,1708,1,0,0,16,1.708,1
16,47,1510,1,0.35,0.35,16,1.51,1
16,48,1843,-1,0.35,0,16,1.843,1
16,49,3003,-1,0.65,0.5,16,3.003,1
16,50,1585,1,0,0.5,16,1.585,1
16,51,1568,-1,0.95,0,16,1.568,1
16,52,1692,1,0.2,0.5,16,1.692,1
16,53,1234,1,0.2,0.8,16,1.234,1
16,54,1422,-1,0.35,0.05,16,1.422,1
16,55,1365,1,0.2,0.05,16,1.365,0
16,56,1767,-1,0,0.2,16,1.767,0
16,57,4305,-1,0.35,0,16,4.305,1
16,58,1648,1,0,0.05,16,1.648,1
16,59,1798,1,0,0.8,16,1.798,1
16,60,1422,1,0.2,0.2,16,1.422,1
16,61,2184,-1,0.5,0.2,16,2.184,1
16,62,4273,-1,0,0,16,4.273,1
16,63,1511,1,0.2,0.95,16,1.511,1
16,64,3052,1,0.35,0.8,16,3.052,1
16,65,2488,1,0.05,0,16,2.488,0
16,66,2853,1,0,0.2,16,2.853,1
16,67,2000,-1,0.5,0.05,16,2,1
16,68,1609,1,0,0.5,16,1.609,1
16,69,2723,-1,0.05,0.05,16,2.723,1
16,70,3316,-1,0.2,0.05,16,3.316,1
16,71,1875,-1,0.2,0,16,1.875,1
16,72,1548,1,0.2,0.95,16,1.548,1
16,73,1897,1,0.05,0.2,16,1.897,1
16,74,1611,1,0.05,0.65,16,1.611,1
16,75,1580,1,0.35,0.65,16,1.58,1
16,76,2759,1,0,0,16,2.759,1
16,77,3632,-1,0.35,0.05,16,3.632,1
16,78,2008,1,0,0.8,16,2.008,1
16,79,6381,1,0.2,0,16,6.381,0
16,80,3125,-1,0,0,16,3.125,1
16,81,1659,-1,0.95,0,16,1.659,1
16,82,1512,-1,0.8,0.2,16,1.512,1
16,83,3430,1,0.05,0.2,16,3.43,1
16,84,1727,1,0.35,0.5,16,1.727,1
16,85,1074,-1,0.05,0,16,1.074,1
16,86,1689,-1,0.95,0,16,1.689,1
16,87,1883,1,0,0.65,16,1.883,1
16,88,5919,-1,0,0.2,16,5.919,0
16,89,3246,1,0,0.2,16,3.246,1
16,90,1562,1,0.2,0,16,1.562,0
16,91,1391,-1,0.35,0.35,16,1.391,1
16,92,1656,1,0,0.35,16,1.656,1
16,93,1455,1,0.2,0.05,16,1.455,0
16,94,1239,-1,0.5,0,16,1.239,1
16,95,2428,1,0,0,16,2.428,1
16,96,1316,-1,0.2,0,16,1.316,1
16,97,1329,1,0,0.95,16,1.329,1
16,98,1224,-1,0.95,0.2,16,1.224,1
16,99,2683,1,0,0,16,2.683,1
16,100,2001,1,0.05,0.5,16,2.001,1
16,101,2319,1,0,0.35,16,2.319,1
16,102,1274,-1,0.5,0,16,1.274,1
16,103,1627,1,0.2,0.5,16,1.627,1
16,104,2387,1,0.95,0.8,16,2.387,0
16,105,1711,1,0.05,0.8,16,1.711,1
16,106,1138,-1,0.05,0,16,1.138,1
16,107,1113,-1,0.2,0,16,1.113,1
16,108,1730,1,0.2,0.5,16,1.73,1
16,109,2343,-1,0.5,0.35,16,2.343,1
16,110,1093,-1,0.35,0.2,16,1.093,1
16,111,5067,1,0,0.05,16,5.067,1
16,112,2320,-1,0.8,0.35,16,2.32,1
16,113,2060,-1,0.5,0,16,2.06,1
16,114,1437,-1,0.8,0,16,1.437,1
16,115,1630,1,0,0,16,1.63,1
16,116,2931,1,0.2,0.2,16,2.931,1
16,117,3606,-1,0.05,0.2,16,3.606,0
16,118,1686,1,0.05,0.35,16,1.686,1
16,119,1836,1,0,0,16,1.836,1
17,0,3613,1,0.05,1.4,17,3.613,1
17,1,2184,1,0.95,1.55,17,2.184,1
17,2,2622,1,1.4,1.85,17,2.622,1
17,3,2160,1,0.35,1.55,17,2.16,1
17,4,2022,-1,1.55,0,17,2.022,1
17,5,1503,-1,2.75,2.3,17,1.503,1
17,6,1644,-1,1.7,1.4,17,1.644,1
17,7,2063,1,0.65,1.85,17,2.063,1
17,8,5256,1,0.5,0.65,17,5.256,1
17,9,1899,1,0,1.7,17,1.899,1
17,10,2077,1,0,2,17,2.077,1
17,11,1437,-1,1.85,0,17,1.437,1
17,12,1179,-1,1.7,0,17,1.179,1
17,13,3993,1,0,0,17,3.993,1
17,14,2048,1,1.85,1.55,17,2.048,0
17,15,2449,-1,1.7,0.8,17,2.449,1
17,16,4422,1,1.25,1.7,17,4.422,1
17,17,2228,-1,2,0.35,17,2.228,1
17,18,1824,1,0,1.85,17,1.824,1
17,19,1981,1,1.55,1.55,17,1.981,1
17,20,1806,-1,1.55,0.95,17,1.806,1
17,21,5094,-1,0,0,17,5.094,1
17,22,4230,-1,0.35,0.2,17,4.23,1
17,23,1933,1,0,0.95,17,1.933,1
17,24,2190,-1,1.85,1.1,17,2.19,1
17,25,1817,1,2,1.7,17,1.817,0
17,26,1841,1,0,1.25,17,1.841,1
17,27,2065,-1,1.85,0.5,17,2.065,1
17,28,1862,-1,2,1.85,17,1.862,1
17,29,3807,-1,0.8,0.2,17,3.807,1
17,30,1309,-1,2,0.2,17,1.309,1
17,31,1948,1,1.7,1.85,17,1.948,1
17,32,1893,1,2.3,1.1,17,1.893,0
17,33,6052,1,0.35,0.8,17,6.052,1
17,34,2050,1,0.95,2.75,17,2.05,1
17,35,2261,1,2,1.7,17,2.261,0
17,36,1836,1,0.2,1.4,17,1.836,1
17,37,2129,1,0,0.8,17,2.129,1
17,38,6925,-1,1.1,1.1,17,6.925,1
17,39,1485,-1,1.85,1.55,17,1.485,1
17,40,7736,1,0,2,17,7.736,1
17,41,2374,1,0.65,0.5,17,2.374,0
17,42,4206,1,0.05,0.95,17,4.206,1
17,43,1951,1,2.3,2.75,17,1.951,1
17,44,3179,-1,1.55,0.35,17,3.179,1
17,45,1698,-1,1.1,2.3,17,1.698,0
17,46,1479,-1,1.55,0.95,17,1.479,1
17,47,2854,1,0.8,1.85,17,2.854,1
17,48,1524,-1,1.7,1.25,17,1.524,1
17,49,1705,1,1.55,0.8,17,1.705,0
17,50,2357,1,0,1.1,17,2.357,1
17,51,2471,1,0.8,1.85,17,2.471,1
17,52,1658,1,0.5,1.85,17,1.658,1
17,53,2018,1,1.55,1.7,17,2.018,1
17,54,2153,1,0,0,17,2.153,1
17,55,2505,-1,2.75,0.95,17,2.505,1
17,56,1749,-1,1.85,1.85,17,1.749,1
17,57,1330,-1,1.25,0,17,1.33,1
17,58,2261,1,0,1.7,17,2.261,1
17,59,1276,-1,0.8,0,17,1.276,1
17,60,1850,-1,1.7,2,17,1.85,0
17,61,1338,-1,1.85,0.65,17,1.338,1
17,62,1802,1,0,1.7,17,1.802,1
17,63,1548,-1,1.85,0.8,17,1.548,1
17,64,1653,1,1.1,2,17,1.653,1
17,65,1296,-1,1.55,1.55,17,1.296,1
17,66,2316,1,1.1,1.1,17,2.316,1
17,67,1800,1,0,1.55,17,1.8,1
17,68,1952,-1,2,0,17,1.952,1
17,69,2198,1,1.4,1.55,17,2.198,1
17,70,8469,1,2,1.85,17,8.469,0
17,71,3221,1,1.7,2,17,3.221,1
17,72,2501,1,0,0.95,17,2.501,1
17,73,3300,-1,0,0,17,3.3,1
17,74,2085,-1,1.4,0.05,17,2.085,1
17,75,2036,-1,1.7,0,17,2.036,1
17,76,2634,-1,1.55,1.85,17,2.634,0
17,77,1993,1,0,1.4,17,1.993,1
17,78,2085,1,1.4,1.7,17,2.085,1
17,79,2438,-1,0.8,0.8,17,2.438,1
17,80,2027,1,0.35,2,17,2.027,1
17,81,1926,-1,1.55,1.4,17,1.926,1
17,82,1072,-1,0.95,0,17,1.072,1
17,83,1082,-1,1.7,0,17,1.082,1
17,84,3030,-1,0.95,0,17,3.03,1
17,85,2328,1,0,0,17,2.328,1
17,86,1446,-1,1.85,1.4,17,1.446,1
17,87,2191,1,0.8,1.85,17,2.191,1
17,88,2558,-1,0.2,0.35,17,2.558,0
17,89,1858,1,0.2,2,17,1.858,1
17,90,7679,-1,0,0,17,7.679,1
17,91,2363,1,0,1.55,17,2.363,1
17,92,1292,-1,1.4,0,17,1.292,1
17,93,1551,1,1.55,1.85,17,1.551,1
17,94,1420,-1,2,0,17,1.42,1
17,95,3093,1,0,1.85,17,3.093,1
17,96,1745,-1,2,1.7,17,1.745,1
17,97,1592,-1,2,1.1,17,1.592,1
17,98,1259,-1,1.7,0,17,1.259,1
17,99,2554,-1,1.7,2,17,2.554,0
17,100,1967,1,1.7,1.55,17,1.967,0
17,101,1965,-1,1.85,2,17,1.965,0
17,102,1973,1,0,1.7,17,1.973,1
17,103,3087,1,0.95,1.55,17,3.087,1
17,104,1736,1,1.1,1.85,17,1.736,1
17,105,2558,-1,1.85,1.7,17,2.558,1
17,106,1717,1,1.85,1.85,17,1.717,1
17,107,2571,1,0.8,1.7,17,2.571,1
17,108,5917,-1,0.95,0.05,17,5.917,1
17,109,1422,-1,1.1,0,17,1.422,1
17,110,1736,1,0.8,0.8,17,1.736,1
17,111,1255,-1,1.85,0.8,17,1.255,1
17,112,2394,-1,1.85,0.8,17,2.394,1
17,113,1324,-1,1.55,0,17,1.324,1
17,114,1903,1,1.85,2,17,1.903,1
17,115,1909,1,0.2,0.8,17,1.909,1
17,116,1671,-1,1.4,0.2,17,1.671,1
17,117,1361,-1,0.8,1.55,17,1.361,0
17,118,1646,-1,0.8,0.35,17,1.646,1
17,119,1505,-1,1.85,0,17,1.505,1
18,0,2297,1,1.1,0.5,18,2.297,0
18,1,4812,1,0.65,0.35,18,4.812,0
18,2,5754,-1,0.95,0.8,18,5.754,1
18,3,2440,-1,0.65,0.5,18,2.44,1
18,4,1998,-1,0.5,0.5,18,1.998,1
18,5,2974,-1,0.8,0.8,18,2.974,1
18,6,2795,-1,0.8,0.5,18,2.795,1
18,7,2195,1,0.5,0.65,18,2.195,1
18,8,2399,1,0.8,0.65,18,2.399,0
18,9,2914,1,0.65,0.05,18,2.914,0
18,10,1593,-1,0.65,0.35,18,1.593,1
18,11,2069,1,0.35,0.5,18,2.069,1
18,12,2134,-1,0.35,0.2,18,2.134,1
18,13,2582,-1,0.65,0.65,18,2.582,1
18,14,2708,1,0.2,0.5,18,2.708,1
18,15,2144,-1,0.65,0.8,18,2.144,0
18,16,1796,1,0.5,0.35,18,1.796,0
18,17,1410,-1,0.35,1.1,18,1.41,0
18,18,3040,-1,0.35,0.65,18,3.04,0
18,19,1945,-1,0.5,0.5,18,1.945,1
18,20,2467,-1,0.95,0.5,18,2.467,1
18,21,2359,-1,0.5,0.35,18,2.359,1
18,22,3682,1,0.8,0.5,18,3.682,0
18,23,2236,-1,0.35,0.2,18,2.236,1
18,24,2354,-1,0.05,0.35,18,2.354,0
18,25,2460,1,0.5,0.5,18,2.46,1
18,26,1666,-1,0.95,0.65,18,1.666,1
18,27,1422,-1,0.65,0.35,18,1.422,1
18,28,1239,-1,1.4,0.5,18,1.239,1
18,29,2887,1,0.5,0.2,18,2.887,0
18,30,2156,-1,0.35,0.8,18,2.156,0
18,31,2944,1,1.25,0.5,18,2.944,0
18,32,2406,1,0.35,0.8,18,2.406,1
18,33,1488,-1,0.35,0.35,18,1.488,1
18,34,3311,1,0,0.95,18,3.311,1
18,35,1422,-1,0.65,0.65,18,1.422,1
18,36,1930,1,0.5,1.1,18,1.93,1
18,37,2048,1,0.8,0.35,18,2.048,0
18,38,3073,-1,0.2,0.5,18,3.073,0
18,39,2500,-1,0.2,0.8,18,2.5,0
18,40,3978,1,1.1,0.35,18,3.978,0
18,41,2441,1,0.8,0.8,18,2.441,1
18,42,3181,-1,0.35,0.35,18,3.181,1
18,43,2043,1,0.65,1.1,18,2.043,1
18,44,2880,1,0.2,0.35,18,2.88,1
18,45,2321,-1,0.8,0.2,18,2.321,1
18,46,1427,-1,0.65,1.1,18,1.427,0
18,47,1922,1,0.5,0.95,18,1.922,1
18,48,1869,1,0.5,1.4,18,1.869,1
18,49,1363,-1,0.35,0.65,18,1.363,0
18,50,2525,1,0.5,0.5,18,2.525,1
18,51,2899,1,0.5,1.1,18,2.899,1
18,52,2027,1,0.5,0.95,18,2.027,1
18,53,1536,1,0.65,0.95,18,1.536,1
18,54,2356,1,0.65,0.35,18,2.356,0
18,55,1644,1,1.1,0.5,18,1.644,0
18,56,1708,-1,0.35,0.8,18,1.708,0
18,57,2085,-1,0.65,0.2,18,2.085,1
18,58,1578,-1,1.1,0.5,18,1.578,1
18,59,1910,-1,0.35,0.5,18,1.91,0
18,60,1469,-1,0.35,0.5,18,1.469,0
18,61,3235,1,0.5,0.65,18,3.235,1
18,62,2905,1,1.4,0.5,18,2.905,0
18,63,2275,-1,0.5,0,18,2.275,1
18,64,1493,1,0.35,0.65,18,1.493,1
18,65,2797,-1,0.5,1.25,18,2.797,0
18,66,4786,-1,0.65,0.35,18,4.786,1
18,67,2506,1,0.35,0.2,18,2.506,0
18,68,3871,1,0.35,0.5,18,3.871,1
18,69,3057,1,0.2,0.5,18,3.057,1
18,70,2281,-1,0.2,0.5,18,2.281,0
18,71,2302,-1,0.5,0.8,18,2.302,0
18,72,1903,1,1.25,0.35,18,1.903,0
18,73,2072,1,0.35,0.95,18,2.072,1
18,74,2793,-1,0.95,0.8,18,2.793,1
18,75,1837,1,0.35,0.65,18,1.837,1
18,76,2656,1,0.05,0.65,18,2.656,1
18,77,9979,-1,0.2,0.35,18,9.979,0
18,78,3219,1,0.35,0.5,18,3.219,1
18,79,5373,1,0.8,0.65,18,5.373,0
18,80,4082,-1,0.5,0.2,18,4.082,1
18,81,2163,-1,1.1,0.65,18,2.163,1
18,82,2184,-1,0.5,0.2,18,2.184,1
18,83,3654,-1,0.5,0.35,18,3.654,1
18,84,2203,1,0.35,0.05,18,2.203,0
18,85,2279,1,0.8,0.35,18,2.279,0
18,86,2094,-1,0.95,0.5,18,2.094,1
18,87,1669,1,1.1,0.65,18,1.669,0
18,88,1528,1,0.65,0.35,18,1.528,0
18,89,2125,-1,0.35,0.5,18,2.125,0
18,90,1882,1,0.65,0.8,18,1.882,1
18,91,4247,-1,0.95,0.5,18,4.247,1
18,92,3677,1,0,0.5,18,3.677,1
18,93,4463,-1,0.65,0.65,18,4.463,1
18,94,1515,-1,0.5,1.1,18,1.515,0
18,95,1873,1,0.35,0.65,18,1.873,1
18,96,1803,1,0.8,0.95,18,1.803,1
18,97,2140,-1,0.65,0.8,18,2.14,0
18,98,2202,-1,0.8,0.95,18,2.202,0
18,99,1730,1,0.35,0.65,18,1.73,1
18,100,2233,1,0.5,0.5,18,2.233,1
18,101,1721,-1,0.35,1.25,18,1.721,0
18,102,2022,1,0.65,0.65,18,2.022,1
18,103,4752,-1,0.95,0.35,18,4.752,1
18,104,2086,1,0.2,0.8,18,2.086,1
18,105,1654,-1,0.65,0.5,18,1.654,1
18,106,1820,-1,0.5,1.4,18,1.82,0
18,107,2117,-1,0.8,0.2,18,2.117,1
18,108,5365,1,0.95,0,18,5.365,0
18,109,2423,-1,0.5,0.35,18,2.423,1
18,110,2918,1,0.5,0.35,18,2.918,0
18,111,2160,1,0.8,0.65,18,2.16,0
18,112,2741,-1,0.2,0.35,18,2.741,0
18,113,3160,-1,0.2,0.65,18,3.16,0
18,114,7142,1,0.5,0.2,18,7.142,0
18,115,1417,1,0.5,0.95,18,1.417,1
18,116,2151,1,0.5,0.35,18,2.151,0
18,117,2336,1,0.5,0.8,18,2.336,1
18,118,1830,-1,0.8,0.35,18,1.83,1
18,119,3016,-1,0.5,0.5,18,3.016,1
19,0,2332,-1,0.95,0.95,19,2.332,1
19,1,1728,1,0.95,2,19,1.728,1
19,2,1884,-1,1.1,0.95,19,1.884,1
19,3,2489,-1,0.95,0.95,19,2.489,1
19,4,1757,-1,2.15,1.55,19,1.757,1
19,5,1703,1,1.85,0.95,19,1.703,0
19,6,1493,1,1.55,0.95,19,1.493,0
19,7,1569,1,0.95,0.95,19,1.569,1
19,8,1847,1,1.55,2,19,1.847,1
19,9,3753,-1,1.55,1.1,19,3.753,1
19,10,1403,-1,2.15,0.8,19,1.403,1
19,11,2108,-1,0.95,1.1,19,2.108,0
19,12,1887,1,0.95,1.55,19,1.887,1
19,13,2060,1,0.95,0.95,19,2.06,1
19,14,1800,-1,0.95,1.1,19,1.8,0
19,15,1327,-1,2,0.65,19,1.327,1
19,16,1502,-1,0.95,0.95,19,1.502,1
19,17,1114,-1,0.95,1.4,19,1.114,0
19,18,1230,-1,2,1.55,19,1.23,1
19,19,1774,1,0.95,1.25,19,1.774,1
19,20,2306,-1,0.95,0.95,19,2.306,1
19,21,1324,-1,1.55,0.95,19,1.324,1
19,22,2261,1,0.95,0.95,19,2.261,1
19,23,1877,-1,0.95,0.95,19,1.877,1
19,24,1773,1,1.55,0.95,19,1.773,0
19,25,1635,-1,0.95,2,19,1.635,0
19,26,1422,1,2,0.95,19,1.422,0
19,27,1797,1,1.1,1.4,19,1.797,1
19,28,1751,1,0.95,2,19,1.751,1
19,29,2013,1,1.1,1.1,19,2.013,1
19,30,1426,-1,0.95,0.95,19,1.426,1
19,31,1467,-1,1.4,0.95,19,1.467,1
19,32,1364,-1,1.55,1.1,19,1.364,1
19,33,1782,1,0.65,0.95,19,1.782,1
19,34,1608,1,0.95,2,19,1.608,1
19,35,1415,-1,1.55,1.4,19,1.415,1
19,36,2360,-1,1.1,0.65,19,2.36,1
19,37,1688,-1,0.95,0.95,19,1.688,1
19,38,1489,-1,0.8,0.95,19,1.489,0
19,39,1995,-1,0.95,0.95,19,1.995,1
19,40,2148,1,1.55,0.95,19,2.148,0
19,41,1307,1,1.1,1.1,19,1.307,1
19,42,1535,-1,2,0.95,19,1.535,1
19,43,2116,1,0.95,0.95,19,2.116,1
19,44,2264,-1,1.85,1.25,19,2.264,1
19,45,1679,1,2,0.95,19,1.679,0
19,46,2243,-1,1.4,1.1,19,2.243,1
19,47,1498,1,0.95,1.1,19,1.498,1
19,48,2214,-1,0.95,0.95,19,2.214,1
19,49,1724,1,1.1,1.55,19,1.724,1
19,50,1512,1,1.4,0.95,19,1.512,0
19,51,1322,-1,0.95,1.55,19,1.322,0
19,52,1100,-1,0.95,0.95,19,1.1,1
19,53,2397,-1,2,0.95,19,2.397,1
19,54,2282,1,0.8,0.65,19,2.282,0
19,55,1196,-1,1.4,0.95,19,1.196,1
19,56,2025,1,0.95,0.95,19,2.025,1
19,57,1482,-1,0.95,2,19,1.482,0
19,58,1772,1,0.95,0.95,19,1.772,1
19,59,1829,1,0.95,0.95,19,1.829,1
19,60,1728,1,0.95,0.95,19,1.728,1
19,61,1233,-1,0.95,0.5,19,1.233,1
19,62,1449,1,1.1,0.95,19,1.449,0
19,63,1402,-1,0.95,0.65,19,1.402,1
19,64,1352,-1,0.95,1.4,19,1.352,0
19,65,1239,-1,1.1,1.1,19,1.239,1
19,66,1716,-1,0.95,2,19,1.716,0
19,67,1396,1,1.1,0.95,19,1.396,0
19,68,1462,1,1.55,1.4,19,1.462,0
19,69,1483,1,0.95,0.95,19,1.483,1
19,70,1558,1,0.95,1.1,19,1.558,1
19,71,1998,1,1.4,0.95,19,1.998,0
19,72,1556,1,0.5,1.55,19,1.556,1
19,73,1100,-1,1.4,1.4,19,1.1,1
19,74,1670,1,0.8,1.1,19,1.67,1
19,75,2746,-1,1.55,0.95,19,2.746,1
19,76,1332,-1,0.95,1.1,19,1.332,0
19,77,1445,1,1.55,2,19,1.445,1
19,78,1617,1,0.95,1.4,19,1.617,1
19,79,1723,1,0.95,1.55,19,1.723,1
19,80,1738,1,0.5,0.95,19,1.738,1
19,81,1660,1,0.95,0.8,19,1.66,0
19,82,1915,1,1.4,0.95,19,1.915,0
19,83,1421,1,0.95,0.95,19,1.421,1
19,84,3423,1,2,0.95,19,3.423,0
19,85,1133,-1,1.1,0.8,19,1.133,1
19,86,1415,1,1.25,1.85,19,1.415,1
19,87,2034,1,0.95,2,19,2.034,1
19,88,1261,-1,0.95,1.55,19,1.261,0
19,89,1214,1,0.95,1.55,19,1.214,1
19,90,1220,-1,0.95,0.95,19,1.22,1
19,91,1657,-1,1.4,1.55,19,1.657,0
19,92,1444,1,1.4,1.55,19,1.444,1
19,93,1282,-1,1.55,0.95,19,1.282,1
19,94,2040,1,0.65,1.1,19,2.04,1
19,95,1723,-1,2,1.55,19,1.723,1
19,96,1385,-1,1.1,0.95,19,1.385,1
19,97,1563,1,0.95,0.95,19,1.563,1
19,98,2138,1,0.95,0.95,19,2.138,1
19,99,1766,1,0.65,2,19,1.766,1
19,100,1768,1,0.95,1.4,19,1.768,1
19,101,1306,1,1.1,1.1,19,1.306,1
19,102,1390,1,0.95,1.4,19,1.39,1
19,103,1362,1,0.95,0.95,19,1.362,1
19,104,1327,-1,0.65,0.8,19,1.327,0
19,105,1049,-1,0.95,0.95,19,1.049,1
19,106,1424,1,1.55,2.15,19,1.424,1
19,107,1230,1,0.95,0.95,19,1.23,1
19,108,1473,1,0.95,1.55,19,1.473,1
19,109,1314,-1,1.1,1.55,19,1.314,0
19,110,1172,-1,1.25,0.95,19,1.172,1
19,111,1480,1,0.95,0.95,19,1.48,1
19,112,1292,1,1.4,1.4,19,1.292,1
19,113,1714,-1,1.55,0.5,19,1.714,1
19,114,1573,-1,0.95,1.85,19,1.573,0
19,115,3284,-1,2,0.95,19,3.284,1
19,116,823,1,0.8,2.15,19,0.823,1
19,117,1164,-1,0.95,0.95,19,1.164,1
19,118,1663,1,1.1,0.95,19,1.663,0
19,119,1361,-1,2,0.95,19,1.361,1
20,0,2166,-1,1.1,0.45,20,2.166,1
20,1,4390,1,0.8,0.8,20,4.39,1
20,2,2062,1,0.8,0.8,20,2.062,1
20,3,4324,1,0.35,0.8,20,4.324,1
20,4,4448,-1,0.3,0.5,20,4.448,0
20,5,2694,1,0.5,1.1,20,2.694,1
20,6,1950,1,0.35,1.1,20,1.95,1
20,7,9842,1,0.8,0.95,20,9.842,1
20,8,4513,1,0.5,0.65,20,4.513,1
20,9,2136,1,0.5,0.8,20,2.136,1
20,10,2124,-1,1.55,0,20,2.124,1
20,11,4294,-1,0.5,0,20,4.294,1
20,12,4598,-1,0.65,0.8,20,4.598,0
20,13,1695,-1,1.1,0.8,20,1.695,1
20,14,2258,1,0.5,0.35,20,2.258,0
20,15,1984,-1,0.95,0.8,20,1.984,1
20,16,2651,-1,0.5,1.1,20,2.651,0
20,17,9449,1,0.5,1.1,20,9.449,1
20,18,7442,1,1.1,0.95,20,7.442,0
20,19,2865,-1,0.95,0,20,2.865,1
20,20,5971,1,1.25,0.65,20,5.971,0
20,21,5689,-1,0.8,0.35,20,5.689,1
20,22,2156,-1,0.95,0.65,20,2.156,1
20,23,1835,-1,0.95,0.5,20,1.835,1
20,24,2890,1,0.35,1.4,20,2.89,1
20,25,6698,1,0.5,0.3,20,6.698,0
20,26,2652,1,0.95,1.1,20,2.652,1
20,27,4481,1,0.3,0.95,20,4.481,1
20,28,4590,1,1.4,1.1,20,4.59,0
20,29,2529,-1,1.1,0,20,2.529,1
20,30,4333,1,0.35,0.8,20,4.333,1
20,31,4723,-1,1.55,0.95,20,4.723,1
20,32,4995,1,1.1,1.4,20,4.995,1
20,33,3351,1,0.35,0.65,20,3.351,1
20,34,4356,1,0.95,0.3,20,4.356,0
20,35,3812,-1,1.1,0.8,20,3.812,1
20,36,2687,-1,0.8,0,20,2.687,1
20,37,2814,1,0.8,1.4,20,2.814,1
20,38,11149,-1,0.95,1.1,20,11.149,0
20,39,2857,-1,0.8,0.35,20,2.857,1
20,40,2340,-1,0.35,0.5,20,2.34,0
20,41,2996,-1,0.95,0.8,20,2.996,1
20,42,3176,-1,0.95,1.1,20,3.176,0
20,43,1750,-1,1.4,1.1,20,1.75,1
20,44,3439,1,1.1,0.5,20,3.439,0
20,45,1569,-1,0.8,0.8,20,1.569,1
20,46,3036,-1,0.3,0.5,20,3.036,0
20,47,1645,-1,0.95,0.5,20,1.645,1
20,48,6142,-1,0.8,1.1,20,6.142,0
20,49,3802,-1,1.4,1.1,20,3.802,1
20,50,1826,1,0,0.5,20,1.826,1
20,51,4301,1,0.8,1.1,20,4.301,1
20,52,2606,-1,0.95,1.1,20,2.606,0
20,53,3080,-1,0.95,1.25,20,3.08,0
20,54,5943,-1,1.25,0.65,20,5.943,1
20,55,1647,-1,0.8,0.35,20,1.647,1
20,56,1917,-1,1.1,1.25,20,1.917,0
20,57,1930,1,0.95,1.55,20,1.93,1
20,58,3327,1,0.35,0.95,20,3.327,1
20,59,1706,-1,0.65,1.1,20,1.706,0
20,60,6091,1,0.65,0.95,20,6.091,1
20,61,2498,1,0.5,1.4,20,2.498,1
20,62,1582,1,0.5,0.95,20,1.582,1
20,63,3169,1,0.65,0.65,20,3.169,1
20,64,5454,1,0.5,0.5,20,5.454,1
20,65,3277,1,0.5,0.3,20,3.277,0
20,66,1904,1,0.8,0.65,20,1.904,0
20,67,1386,-1,1.1,0.35,20,1.386,1
20,68,3081,-1,0.95,0.3,20,3.081,1
20,69,1658,1,0,0.65,20,1.658,1
20,70,1879,1,0,1.55,20,1.879,1
20,71,2136,-1,1.4,0.8,20,2.136,1
20,72,6372,1,0.5,1.1,20,6.372,1
20,73,3062,-1,0.65,0.45,20,3.062,1
20,74,1889,-1,0.8,0.5,20,1.889,1
20,75,3898,-1,0.35,0.8,20,3.898,0
20,76,1916,-1,0.65,0.35,20,1.916,1
20,77,1569,-1,1.1,0.5,20,1.569,1
20,78,2240,1,0.35,0.5,20,2.24,1
20,79,1611,1,0.45,1.1,20,1.611,1
20,80,2077,-1,1.4,0.35,20,2.077,1
20,81,1471,-1,0.65,0,20,1.471,1
20,82,2810,1,1.1,1.4,20,2.81,1
20,83,2418,1,1.1,0.95,20,2.418,0
20,84,2539,-1,1.4,0.5,20,2.539,1
20,85,1950,-1,0.8,0.35,20,1.95,1
20,86,2047,1,1.1,0.95,20,2.047,0
20,87,1390,1,0.5,0.95,20,1.39,1
20,88,6161,1,1.1,0.8,20,6.161,0
20,89,2722,1,0.8,0.35,20,2.722,0
20,90,3171,-1,0.65,1.25,20,3.171,0
20,91,3857,1,0.65,0.95,20,3.857,1
20,92,3022,-1,0.95,0.65,20,3.022,1
20,93,1856,1,0.8,1.1,20,1.856,1
20,94,2536,-1,0.65,0.65,20,2.536,1
20,95,2274,-1,1.1,0.5,20,2.274,1
20,96,2358,1,0.8,0.95,20,2.358,1
20,97,2207,1,0.8,1.1,20,2.207,1
20,98,1585,1,1.1,0.65,20,1.585,0
20,99,3072,1,0,0.8,20,3.072,1
20,100,1605,-1,0.8,0.35,20,1.605,1
20,101,1638,-1,0.5,0.35,20,1.638,1
20,102,1612,1,0.45,0.65,20,1.612,1
20,103,3207,1,0,1.1,20,3.207,1
20,104,1810,1,0.35,0.8,20,1.81,1
20,105,2554,1,0.35,0.8,20,2.554,1
20,106,1389,-1,1.1,0.95,20,1.389,1
20,107,1385,1,0,0.95,20,1.385,1
20,108,2947,-1,1.1,0.8,20,2.947,1
20,109,3629,-1,0.95,0.35,20,3.629,1
20,110,1871,1,0.35,0.8,20,1.871,1
20,111,2361,-1,0.3,0.95,20,2.361,0
20,112,2423,1,0.65,1.25,20,2.423,1
20,113,1515,-1,1.1,0.5,20,1.515,1
20,114,1676,1,1.25,1.1,20,1.676,0
20,115,4381,-1,0.8,0.8,20,4.381,1
20,116,5454,-1,0.5,0.5,20,5.454,1
20,117,4313,-1,0.65,0.5,20,4.313,1
20,118,4109,1,1.25,0.95,20,4.109,0
20,119,3560,-1,1.1,1.4,20,3.56,0
21,0,12034,-1,1.1,1.1,21,12.034,1
21,1,14157,1,0,0.35,21,14.157,1
21,2,4163,1,0.95,0.8,21,4.163,0
21,3,6916,-1,1.1,0.65,21,6.916,1
21,4,11792,1,0.65,2,21,11.792,1
21,5,4040,1,0.95,0.5,21,4.04,0
21,6,6381,1,1.25,0.35,21,6.381,0
21,7,4779,-1,0.8,0.5,21,4.779,1
21,8,3639,-1,1.4,0,21,3.639,1
21,9,5037,-1,2,1.55,21,5.037,1
21,10,5566,1,0.65,1.4,21,5.566,1
21,11,11800,-1,0.65,0.8,21,11.8,0
21,12,3849,1,1.1,1.4,21,3.849,1
21,13,10563,-1,1.25,2,21,10.563,0
21,14,9338,1,0.5,1.1,21,9.338,1
21,15,4573,1,0.8,1.1,21,4.573,1
21,16,3910,1,0,1.1,21,3.91,1
21,17,9826,-1,0.65,0.95,21,9.826,0
21,18,4236,1,1.55,0.95,21,4.236,0
21,19,3490,1,0,0.65,21,3.49,1
21,20,6885,1,0.65,0.65,21,6.885,1
21,21,4994,1,1.1,0.95,21,4.994,0
21,22,4121,1,1.25,0.95,21,4.121,0
21,23,4757,-1,1.55,0.35,21,4.757,1
21,24,10833,-1,0.35,0.8,21,10.833,0
21,25,2906,1,1.1,1.1,21,2.906,1
21,26,5248,-1,0.8,0.8,21,5.248,1
21,27,9082,1,1.4,0.95,21,9.082,0
21,28,5486,-1,1.4,0.95,21,5.486,1
21,29,6309,1,1.55,1.85,21,6.309,1
21,30,5442,-1,1.4,0.8,21,5.442,1
21,31,8152,-1,0.8,1.25,21,8.152,0
21,32,3788,-1,1.25,0.35,21,3.788,1
21,33,6541,1,0.65,1.25,21,6.541,1
21,34,3275,1,1.25,1.4,21,3.275,1
21,35,3104,1,0.65,2,21,3.104,1
21,36,18855,1,0.95,0.8,21,18.855,0
21,37,3183,1,0.8,1.4,21,3.183,1
21,38,2348,1,0.35,0.65,21,2.348,1
21,39,3867,-1,0.95,0.65,21,3.867,1
21,40,3245,1,1.25,1.85,21,3.245,1
21,41,5833,-1,1.85,1.55,21,5.833,1
21,42,3560,-1,2,0.65,21,3.56,1
21,43,5873,-1,1.1,0.8,21,5.873,1
21,44,2132,-1,0.65,0,21,2.132,1
21,45,3637,-1,0.8,0.65,21,3.637,1
21,46,3744,1,2,0.65,21,3.744,0
21,47,4117,-1,1.85,0.5,21,4.117,1
21,48,4000,1,1.1,0.5,21,4,0
21,49,3576,-1,0.65,0.35,21,3.576,1
21,50,8449,-1,0.8,0.8,21,8.449,1
21,51,5588,1,0.65,1.1,21,5.588,1
21,52,3640,-1,0.95,1.1,21,3.64,0
21,53,4100,-1,1.4,1.55,21,4.1,0
21,54,2749,1,0.8,0.5,21,2.749,0
21,55,3314,1,0.95,0.5,21,3.314,0
21,56,3039,1,0.65,0.95,21,3.039,1
21,57,7761,1,0.8,0.65,21,7.761,0
21,58,3861,1,0.95,1.55,21,3.861,1
21,59,5059,-1,1.4,1.1,21,5.059,1
21,60,5871,-1,1.4,0.8,21,5.871,1
21,61,4735,-1,1.25,0.8,21,4.735,1
21,62,6461,1,2,1.25,21,6.461,0
21,63,5165,1,0.35,1.55,21,5.165,1
21,64,5425,-1,0.95,0.65,21,5.425,1
21,65,3315,1,0.8,1.85,21,3.315,1
21,66,2635,1,0.8,1.4,21,2.635,1
21,67,10420,-1,1.4,2,21,10.42,0
21,68,8371,-1,0.5,0.65,21,8.371,0
21,69,2120,1,0.35,1.25,21,2.12,1
21,70,2861,1,1.1,1.1,21,2.861,1
21,71,4752,-1,0.95,1.4,21,4.752,0
21,72,2226,1,1.1,0.8,21,2.226,0
21,73,5255,-1,0.35,0,21,5.255,1
21,74,2400,1,0.95,1.25,21,2.4,1
21,75,3716,1,0,1.1,21,3.716,1
21,76,1837,1,1.55,2,21,1.837,1
21,77,4758,-1,0.8,0,21,4.758,1
21,78,3912,-1,1.1,0.5,21,3.912,1
21,79,3338,1,0,1.4,21,3.338,1
21,80,6098,-1,1.85,0.8,21,6.098,1
21,81,3291,-1,0.8,0.95,21,3.291,0
21,82,1720,-1,0.8,0.95,21,1.72,0
21,83,2829,-1,0.95,1.55,21,2.829,0
21,84,3359,1,1.1,1.4,21,3.359,1
21,85,3770,-1,1.1,1.1,21,3.77,1
21,86,4960,-1,1.55,0.95,21,4.96,1
21,87,2969,-1,0.5,1.1,21,2.969,0
21,88,3282,-1,1.4,1.1,21,3.282,1
21,89,4369,-1,1.25,0.65,21,4.369,1
21,90,2329,1,0.65,0.8,21,2.329,1
21,91,4872,1,2,1.4,21,4.872,0
21,92,2227,1,0.65,0.5,21,2.227,0
21,93,3280,-1,1.85,1.25,21,3.28,1
21,94,2609,-1,1.25,0.95,21,2.609,1
21,95,1665,1,0.95,1.4,21,1.665,1
21,96,3929,1,0.65,0.95,21,3.929,1
21,97,3471,1,0.95,0.65,21,3.471,0
21,98,3116,1,0.8,1.4,21,3.116,1
21,99,3000,-1,0.8,1.1,21,3,0
21,100,3541,1,0.8,0.35,21,3.541,0
21,101,1532,-1,0.5,0.8,21,1.532,0
21,102,5023,-1,0.35,1.25,21,5.023,0
21,103,2311,-1,2,0.65,21,2.311,1
21,104,1339,-1,0.5,0.95,21,1.339,0
21,105,3697,-1,0.5,0.95,21,3.697,0
21,106,1828,-1,1.1,0,21,1.828,1
21,107,2908,1,1.25,0.8,21,2.908,0
21,108,3996,-1,0.65,2,21,3.996,0
21,109,1831,1,0,0.8,21,1.831,1
21,110,2910,1,0.8,1.25,21,2.91,1
21,111,3252,-1,0.95,1.25,21,3.252,0
21,112,4456,1,0.5,1.85,21,4.456,1
21,113,3181,1,0.5,0.8,21,3.181,1
21,114,4799,-1,1.4,1.25,21,4.799,1
21,115,2086,-1,1.4,0.8,21,2.086,1
21,116,1923,-1,1.4,0.65,21,1.923,1
21,117,4144,-1,0.65,0.65,21,4.144,1
21,118,3303,1,1.55,1.4,21,3.303,0
21,119,1059,-1,1.1,0,21,1.059,1
22,0,2559,-1,0.65,0.65,22,2.559,1
22,1,3243,1,0.5,0.65,22,3.243,1
22,2,2064,1,0.05,0.65,22,2.064,1
22,3,4385,-1,0.35,0.5,22,4.385,0
22,4,2118,-1,0.65,0,22,2.118,1
22,5,1625,1,0.8,0.8,22,1.625,1
22,6,1755,-1,0.65,0.95,22,1.755,0
22,7,1526,1,0.5,0.65,22,1.526,1
22,8,2642,-1,0,0.05,22,2.642,0
22,9,2526,1,0.5,0.35,22,2.526,0
22,10,4037,1,0.05,0.2,22,4.037,1
22,11,1939,-1,1.1,0.35,22,1.939,1
22,12,1916,1,0.5,0.8,22,1.916,1
22,13,1520,1,0.65,0.95,22,1.52,1
22,14,1673,-1,0.5,0.95,22,1.673,0
22,15,2184,1,0.35,0.2,22,2.184,0
22,16,1556,1,0.65,0.65,22,1.556,1
22,17,1668,1,0.65,1.1,22,1.668,1
22,18,2674,-1,0.65,0.5,22,2.674,1
22,19,2013,1,0.5,0.65,22,2.013,1
22,20,6841,1,0.65,0.65,22,6.841,1
22,21,2224,1,0.5,0.65,22,2.224,1
22,22,1369,-1,0.8,0.35,22,1.369,1
22,23,1528,1,0.05,1.4,22,1.528,1
22,24,2351,-1,0.65,0,22,2.351,1
22,25,1293,1,0.5,0.35,22,1.293,0
22,26,1543,1,0.35,0.8,22,1.543,1
22,27,1941,-1,0.8,0.5,22,1.941,1
22,28,1335,-1,0.5,0.5,22,1.335,1
22,29,3715,1,0.5,0.35,22,3.715,0
22,30,4297,-1,0.65,0.2,22,4.297,1
22,31,1281,-1,1.4,0.8,22,1.281,1
22,32,1403,-1,0.8,0,22,1.403,1
22,33,1498,-1,0.65,0.2,22,1.498,1
22,34,1174,1,0.5,1.4,22,1.174,1
22,35,1038,-1,0.5,0.5,22,1.038,1
22,36,1214,1,0.65,0.5,22,1.214,0
22,37,4034,1,0.95,0.65,22,4.034,0
22,38,1700,1,0,0.35,22,1.7,1
22,39,3601,-1,0.2,0.35,22,3.601,0
22,40,3267,-1,0.65,0.95,22,3.267,0
22,41,1221,-1,0.65,0.35,22,1.221,1
22,42,1337,-1,0.65,0.2,22,1.337,1
22,43,1500,1,1.25,0.8,22,1.5,0
22,44,1997,-1,0.65,0.5,22,1.997,1
22,45,1388,-1,0.65,0.05,22,1.388,1
22,46,1224,-1,0.5,0.5,22,1.224,1
22,47,1999,-1,0.65,0.65,22,1.999,1
22,48,1633,1,0.5,0.8,22,1.633,1
22,49,2524,1,0.2,0.65,22,2.524,1
22,50,1251,-1,1.4,0.5,22,1.251,1
22,51,1523,-1,1.25,0.35,22,1.523,1
22,52,1481,-1,0.2,0.05,22,1.481,1
22,53,1757,1,0.65,0.65,22,1.757,1
22,54,1123,-1,0.65,0.35,22,1.123,1
22,55,1156,-1,0.5,0.2,22,1.156,1
22,56,927,-1,0.35,0,22,0.927,1
22,57,2162,-1,0,0.5,22,2.162,0
22,58,1155,1,0,0.8,22,1.155,1
22,59,1423,-1,0.65,0.65,22,1.423,1
22,60,1274,1,0.5,0.5,22,1.274,1
22,61,1634,-1,0.35,0,22,1.634,1
22,62,1141,1,0.35,1.1,22,1.141,1
22,63,1302,-1,0.8,0.65,22,1.302,1
22,64,1112,1,0.35,1.25,22,1.112,1
22,65,1050,1,0.5,0.95,22,1.05,1
22,66,2794,1,0.35,0.5,22,2.794,1
22,67,1329,-1,0.95,0,22,1.329,1
22,68,1740,1,0.5,0.35,22,1.74,0
22,69,1077,-1,1.1,0.65,22,1.077,1
22,70,1823,-1,0.65,0.2,22,1.823,1
22,71,1159,1,0.5,0.65,22,1.159,1
22,72,1891,1,0,0.65,22,1.891,1
22,73,1298,-1,0.8,0.8,22,1.298,1
22,74,1424,1,0,0.65,22,1.424,1
22,75,1129,1,0.5,0.5,22,1.129,1
22,76,4300,-1,0.65,0.35,22,4.3,1
22,77,3121,1,0.65,0.5,22,3.121,0
22,78,1119,1,0.2,0.65,22,1.119,1
22,79,960,1,1.25,1.4,22,0.96,1
22,80,2644,-1,0.65,0.65,22,2.644,1
22,81,1012,-1,0.35,0.65,22,1.012,0
22,82,1117,-1,0.8,1.4,22,1.117,0
22,83,2202,-1,0.05,0,22,2.202,1
22,84,1343,1,0.65,0.65,22,1.343,1
22,85,1163,1,0,0.35,22,1.163,1
22,86,937,1,0.35,0.8,22,0.937,1
22,87,1255,-1,1.4,0.05,22,1.255,1
22,88,1188,1,0.35,1.25,22,1.188,1
22,89,1202,1,0.5,0.5,22,1.202,1
22,90,1068,-1,0.95,0.65,22,1.068,1
22,91,2115,-1,0.35,0.5,22,2.115,0
22,92,1856,1,0.35,0.2,22,1.856,0
22,93,1099,1,0.65,0.65,22,1.099,1
22,94,1082,1,0.95,0.65,22,1.082,0
22,95,1929,-1,0.5,0.5,22,1.929,1
22,96,944,1,0.2,0.65,22,0.944,1
22,97,1935,1,0.65,0.5,22,1.935,0
22,98,1143,1,0.2,0.35,22,1.143,1
22,99,996,-1,0.5,0.65,22,0.996,0
22,100,1288,1,0.2,0.65,22,1.288,1
22,101,1237,-1,0.8,1.25,22,1.237,0
22,102,2282,-1,0.35,0.65,22,2.282,0
22,103,964,-1,1.4,1.25,22,0.964,1
22,104,1414,1,0.65,0.8,22,1.414,1
22,105,757,1,0.2,0.5,22,0.757,1
22,106,1569,1,0,0.95,22,1.569,1
22,107,1043,1,0.95,0.5,22,1.043,0
22,108,2245,-1,0.35,0.5,22,2.245,0
22,109,1452,1,0.35,0.65,22,1.452,1
22,110,1411,-1,1.25,0.35,22,1.411,1
22,111,2792,-1,0.5,0,22,2.792,1
22,112,1076,-1,0.8,0.35,22,1.076,1
22,113,1366,-1,0.65,0.5,22,1.366,1
22,114,1130,1,0.5,0.5,22,1.13,1
22,115,1282,1,0.5,0.65,22,1.282,1
22,116,1450,-1,0.65,0.65,22,1.45,1
22,117,990,-1,0.65,0.5,22,0.99,1
22,118,1119,-1,0.95,0.5,22,1.119,1
22,119,2234,-1,0.8,0.5,22,2.234,1
23,0,3425,-1,1.95,0.8,23,3.425,1
23,1,5439,-1,0.65,0.5,23,5.439,1
23,2,1720,-1,0.95,1.4,23,1.72,0
23,3,1913,-1,1.55,1.25,23,1.913,1
23,4,4599,1,0.65,0.65,23,4.599,1
23,5,2175,1,0.5,0.65,23,2.175,1
23,6,2743,1,1.1,0.95,23,2.743,0
23,7,5296,-1,0.8,1.1,23,5.296,0
23,8,2112,-1,1.55,0.2,23,2.112,1
23,9,1486,-1,0.8,1.1,23,1.486,0
23,10,2069,-1,1.1,0.2,23,2.069,1
23,11,65,1,1.1,0.35,23,0.065,0
23,12,3369,1,0.8,0.95,23,3.369,1
23,13,1853,-1,0.65,0.35,23,1.853,1
23,14,3303,1,0.2,0.95,23,3.303,1
23,15,2046,-1,1.4,0.8,23,2.046,1
23,16,5054,-1,0.8,0.2,23,5.054,1
23,17,2309,-1,1.55,0.8,23,2.309,1
23,18,2822,-1,0.5,1.1,23,2.822,0
23,19,7363,-1,1.1,0.8,23,7.363,1
23,20,2208,1,0.5,0.95,23,2.208,1
23,21,2087,1,0.5,1.55,23,2.087,1
23,22,4382,1,1.1,1.95,23,4.382,1
23,23,6362,-1,0.95,1.1,23,6.362,0
23,24,3137,-1,0.95,0.65,23,3.137,1
23,25,2547,-1,1.1,1.85,23,2.547,0
23,26,1826,-1,1.25,1.1,23,1.826,1
23,27,2485,1,0.8,0.8,23,2.485,1
23,28,5900,1,0.65,1.25,23,5.9,1
23,29,2514,1,2.45,0.95,23,2.514,0
23,30,1918,-1,1.25,0.8,23,1.918,1
23,31,2565,-1,1.25,0.95,23,2.565,1
23,32,2913,1,1.1,0.95,23,2.913,0
23,33,1810,1,1.1,1.25,23,1.81,1
23,34,2227,1,0.2,1.4,23,2.227,1
23,35,2948,-1,0.35,0.5,23,2.948,0
23,36,1909,-1,0.5,1.1,23,1.909,0
23,37,2377,-1,0.95,0.5,23,2.377,1
23,38,6149,1,0.65,1.1,23,6.149,1
23,39,3803,1,0.5,0.95,23,3.803,1
23,40,5183,-1,1.25,1.1,23,5.183,1
23,41,1494,-1,1.4,1.1,23,1.494,1
23,42,1966,1,0.8,1.55,23,1.966,1
23,43,2533,-1,0.8,0.8,23,2.533,1
23,44,2525,1,0.95,0.65,23,2.525,0
23,45,4740,-1,1.1,0.95,23,4.74,1
23,46,2226,1,0.65,0.5,23,2.226,0
23,47,3155,1,0.95,1.1,23,3.155,1
23,48,3204,1,0.8,0.5,23,3.204,0
23,49,3779,-1,1.25,0.95,23,3.779,1
23,50,2695,-1,1.55,1.1,23,2.695,1
23,51,2907,1,1.1,1.25,23,2.907,1
23,52,1869,1,0.95,0.95,23,1.869,1
23,53,2805,-1,0.8,0.8,23,2.805,1
23,54,6932,-1,1.25,0.65,23,6.932,1
23,55,1250,1,0.8,1.4,23,1.25,1
23,56,3460,1,0.65,1.4,23,3.46,1
23,57,3171,-1,0.5,0.95,23,3.171,0
23,58,2860,1,2.45,0.65,23,2.86,0
23,59,1776,1,1.25,1.55,23,1.776,1
23,60,1836,1,0.2,0.8,23,1.836,1
23,61,1614,-1,1.85,0.95,23,1.614,1
23,62,3235,1,0.8,1.25,23,3.235,1
23,63,1335,-1,1.1,0.35,23,1.335,1
23,64,1454,1,0.8,1.95,23,1.454,1
23,65,3421,1,0.5,0.65,23,3.421,1
23,66,2655,1,0.8,1.1,23,2.655,1
23,67,2018,1,0.65,0.65,23,2.018,1
23,68,1515,-1,0.65,0.95,23,1.515,0
23,69,1509,-1,0.35,1.1,23,1.509,0
23,70,1696,-1,1.1,0.5,23,1.696,1
23,71,3518,-1,1.25,0.5,23,3.518,1
23,72,2809,1,0.8,1.1,23,2.809,1
23,73,2136,1,1.1,0.65,23,2.136,0
23,74,1685,-1,1.4,0.95,23,1.685,1
23,75,2499,1,0.2,1.1,23,2.499,1
23,76,5675,1,0.5,0.95,23,5.675,1
23,77,1740,-1,1.95,1.1,23,1.74,1
23,78,1411,-1,1.25,1.1,23,1.411,1
23,79,2134,-1,1.1,1.4,23,2.134,0
23,80,7350,-1,0.95,1.1,23,7.35,0
23,81,3333,1,0.8,0.2,23,3.333,0
23,82,3419,-1,1.1,0.8,23,3.419,1
23,83,2172,-1,0.5,0.35,23,2.172,1
23,84,3181,1,0.95,0.2,23,3.181,0
23,85,2633,-1,1.4,0.65,23,2.633,1
23,86,6330,1,0.95,0.8,23,6.33,0
23,87,2330,1,0.95,1.25,23,2.33,1
23,88,7503,1,1.1,0.95,23,7.503,0
23,89,2384,-1,0.65,0.95,23,2.384,0
23,90,2130,1,0.95,0.65,23,2.13,0
23,91,3240,1,0.95,0.5,23,3.24,0
23,92,2495,-1,0.95,2.45,23,2.495,0
23,93,1922,1,1.1,1.55,23,1.922,1
23,94,2705,-1,0.5,0.8,23,2.705,0
23,95,1954,1,0.8,0.8,23,1.954,1
23,96,3054,-1,0.95,0.95,23,3.054,1
23,97,3337,-1,1.4,0.2,23,3.337,1
23,98,1650,1,1.4,1.1,23,1.65,0
23,99,1741,-1,1.85,1.1,23,1.741,1
23,100,2306,1,1.1,1.4,23,2.306,1
23,101,5150,-1,1.1,1.25,23,5.15,0
23,102,2078,1,1.1,0.8,23,2.078,0
23,103,2328,-1,1.55,1.25,23,2.328,1
23,104,2194,1,0.2,0.8,23,2.194,1
23,105,2378,-1,1.55,0.5,23,2.378,1
23,106,8308,1,0.2,1.55,23,8.308,1
23,107,2344,1,0.95,1.1,23,2.344,1
23,108,6825,-1,1.1,0.5,23,6.825,1
23,109,3431,-1,0.95,0.5,23,3.431,1
23,110,1966,1,0.95,0.5,23,1.966,0
23,111,1945,1,0.5,1.25,23,1.945,1
23,112,3135,1,0.35,1.1,23,3.135,1
23,113,3539,-1,0.65,0.95,23,3.539,0
23,114,2596,1,0.35,0.65,23,2.596,1
23,115,1476,1,0.65,2.45,23,1.476,1
23,116,5114,1,1.25,1.55,23,5.114,1
23,117,2925,1,1.1,0.8,23,2.925,0
23,118,2235,1,0.95,1.85,23,2.235,1
23,119,2440,1,0.95,1.25,23,2.44,1
24,0,7111,1,0.5,1.4,24,7.111,1
24,1,33945,1,1.25,1.7,24,33.945,1
24,2,6109,1,0.35,0.95,24,6.109,1
24,3,3374,1,0.5,0.95,24,3.374,1
24,4,4336,1,0.8,1.1,24,4.336,1
24,5,2956,1,0.5,0.95,24,2.956,1
24,6,7367,-1,1.1,0.95,24,7.367,1
24,7,4784,1,0.95,1.4,24,4.784,1
24,8,2772,1,0,2.15,24,2.772,1
24,9,10124,1,1.55,0.95,24,10.124,0
24,10,11435,-1,1.1,0.65,24,11.435,1
24,11,11269,-1,2.3,1.4,24,11.269,1
24,12,9419,1,1.4,1.85,24,9.419,1
24,13,3909,-1,1.1,0.35,24,3.909,1
24,14,8187,1,0.8,0.8,24,8.187,1
24,15,19172,-1,1.25,0.8,24,19.172,1
24,16,15773,1,1.1,1.1,24,15.773,1
24,17,3452,-1,2.6,0.5,24,3.452,1
24,18,6223,1,1.25,1.1,24,6.223,0
24,19,3892,-1,1.1,0,24,3.892,1
24,20,3361,-1,1.1,1.1,24,3.361,1
24,21,7343,-1,0.8,1.25,24,7.343,0
24,22,2755,1,0.5,0.95,24,2.755,1
24,23,3256,1,0.8,0.8,24,3.256,1
24,24,2297,-1,1.1,0,24,2.297,1
24,25,7873,1,0.35,0.8,24,7.873,1
24,26,4704,-1,2.6,1.1,24,4.704,1
24,27,2886,1,0.5,1.7,24,2.886,1
24,28,2563,-1,0.95,1.4,24,2.563,0
24,29,2995,1,0,0.65,24,2.995,1
24,30,20658,-1,0.8,1.25,24,20.658,0
24,31,12138,-1,1.1,1.1,24,12.138,1
24,32,2992,1,0.5,0.5,24,2.992,1
24,33,1949,-1,0.95,0,24,1.949,1
24,34,4130,1,0.35,0.5,24,4.13,1
24,35,8735,1,1.1,0.35,24,8.735,0
24,36,5870,-1,1.4,0.8,24,5.87,1
24,37,3969,1,0.95,1.1,24,3.969,1
24,38,6710,1,0.8,2.45,24,6.71,1
24,39,14859,1,2.15,1.1,24,14.859,0
24,40,8041,-1,0.35,1.1,24,8.041,0
24,41,3066,-1,0.35,0.65,24,3.066,0
24,42,4360,-1,1.7,1.25,24,4.36,1
24,43,3496,1,0.15,1.4,24,3.496,1
24,44,2890,1,1.1,1.55,24,2.89,1
24,45,9437,1,0,0.5,24,9.437,1
24,46,3401,-1,2.15,0,24,3.401,1
24,47,4197,-1,0.8,0.8,24,4.197,1
24,48,7472,1,0.65,1.25,24,7.472,1
24,49,2349,-1,1.1,0.95,24,2.349,1
24,50,2884,-1,0.95,0.5,24,2.884,1
24,51,4860,1,1.1,1.1,24,4.86,1
24,52,2922,-1,2.45,0.8,24,2.922,1
24,53,2108,-1,0.8,0.8,24,2.108,1
24,54,2857,-1,0.5,0.35,24,2.857,1
24,55,1291,1,1.1,2.6,24,1.291,1
24,56,1437,1,0.35,2.3,24,1.437,1
24,57,3857,1,1.1,1.4,24,3.857,1
24,58,4732,-1,1.55,0.35,24,4.732,1
24,59,2303,1,0.5,1.1,24,2.303,1
24,60,7581,-1,1.2,0.35,24,7.581,1
24,61,1926,-1,0.65,0,24,1.926,1
24,62,6325,-1,2.45,1.2,24,6.325,1
24,63,2120,1,0.35,1.1,24,2.12,1
24,64,1299,-1,1.25,0.5,24,1.299,1
24,65,1343,-1,0.95,0.5,24,1.343,1
24,66,2568,1,0.8,0.8,24,2.568,1
24,67,1847,1,1.25,1.55,24,1.847,1
24,68,1827,-1,1.7,0.5,24,1.827,1
24,69,1786,1,0.8,1.4,24,1.786,1
24,70,2415,-1,0.65,0.35,24,2.415,1
24,71,7703,1,1.25,0.8,24,7.703,0
24,72,3096,1,1.4,2.3,24,3.096,1
24,73,11118,1,1.1,1.1,24,11.118,1
24,74,6112,1,0.65,1.85,24,6.112,1
24,75,3894,-1,0.8,1.1,24,3.894,0
24,76,1440,1,0.5,2.6,24,1.44,1
24,77,6536,1,1.25,0.8,24,6.536,0
24,78,3515,-1,0.35,0.15,24,3.515,1
24,79,3909,-1,1.25,1.25,24,3.909,1
24,80,3685,1,0.35,1.55,24,3.685,1
24,81,1695,-1,0.95,0.35,24,1.695,1
24,82,3089,-1,1.55,1.1,24,3.089,1
24,83,2639,-1,1.4,0.15,24,2.639,1
24,84,3832,-1,0.5,0,24,3.832,1
24,85,2612,1,0.65,0.35,24,2.612,0
24,86,1435,1,0,0.95,24,1.435,1
24,87,2264,-1,1.55,1.25,24,2.264,1
24,88,1891,-1,1.85,0.65,24,1.891,1
24,89,2106,-1,1.4,0.95,24,2.106,1
24,90,1525,1,0.5,1.25,24,1.525,1
24,91,3216,-1,1.4,1.1,24,3.216,1
24,92,2630,1,0,1.1,24,2.63,1
24,93,1993,-1,1.85,1.4,24,1.993,1
24,94,3829,1,1.25,1.25,24,3.829,1
24,95,5505,-1,1.4,0.5,24,5.505,1
24,96,1725,-1,0.95,0.5,24,1.725,1
24,97,1876,-1,2.3,0.35,24,1.876,1
24,98,2562,1,1.4,0.95,24,2.562,0
24,99,3448,1,0.35,0.65,24,3.448,1
24,100,4481,-1,1.25,0.65,24,4.481,1
24,101,6133,1,0.95,1.1,24,6.133,1
24,102,2596,1,0.8,1.25,24,2.596,1
24,103,4222,-1,1.1,0.8,24,4.222,1
24,104,2615,1,0.35,1.1,24,2.615,1
24,105,4245,1,0.65,1.1,24,4.245,1
24,106,8924,-1,1.1,2.15,24,8.924,0
24,107,6909,1,0.35,1.2,24,6.909,1
24,108,2951,1,1.2,2.45,24,2.951,1
24,109,8714,-1,0.95,1.55,24,8.714,0
24,110,2416,1,0.15,0.35,24,2.416,1
24,111,6034,1,1.1,0.8,24,6.034,0
24,112,3032,-1,1.1,0.5,24,3.032,1
24,113,2906,-1,0.8,0.35,24,2.906,1
24,114,2047,-1,1.1,0.35,24,2.047,1
24,115,1822,1,0,1.1,24,1.822,1
24,116,1918,-1,0.8,0.8,24,1.918,1
24,117,2955,-1,0.5,0.5,24,2.955,1
24,118,3366,-1,1.1,1.25,24,3.366,0
24,119,10736,1,1.1,1.1,24,10.736,1
25,0,1908,1,0.95,0.5,25,1.908,0
25,1,2481,-1,0.8,0.95,25,2.481,0
25,2,2880,1,1.4,0.95,25,2.88,0
25,3,3793,1,0.2,0.35,25,3.793,1
25,4,1333,-1,0.8,0.6,25,1.333,1
25,5,2692,-1,1.1,0.95,25,2.692,1
25,6,2027,1,0.5,0.95,25,2.027,1
25,7,4022,-1,0.2,0.35,25,4.022,0
25,8,2724,1,0.95,1.1,25,2.724,1
25,9,6172,1,0,0.8,25,6.172,1
25,10,1983,1,0,0.95,25,1.983,1
25,11,1697,1,0.5,1.1,25,1.697,1
25,12,3018,-1,0.5,0,25,3.018,1
25,13,1783,1,0.95,0.5,25,1.783,0
25,14,1604,1,0.8,1.1,25,1.604,1
25,15,2207,-1,0.65,0,25,2.207,1
25,16,2674,1,0,1.25,25,2.674,1
25,17,2506,1,0.95,0.8,25,2.506,0
25,18,2316,1,0.35,1.1,25,2.316,1