parcode,trial,rt_mili,choice,item_left,item_right,subjidx,rt,response
0,0,3327,1,0.95,2,0,3.327,0
0,1,3424,1,2.3,1.7,0,3.424,1
0,2,3691,1,1.7,1.25,0,3.691,1
0,3,8144,-1,1.55,2.3,0,8.144,1
0,4,6559,-1,2,2,0,6.559,1
0,5,5595,-1,0.65,1.25,0,5.595,1
0,6,2470,1,1.55,1.1,0,2.47,1
0,7,6091,1,0.95,0.65,0,6.091,1
0,8,4669,1,1.55,1.7,0,4.669,0
0,9,4001,1,2,1.1,0,4.001,1
0,10,3301,-1,1.1,1.1,0,3.301,1
0,11,2867,-1,1.4,2,0,2.867,1
0,12,3117,1,1.85,1.1,0,3.117,1
0,13,10424,1,1.7,2,0,10.424,0
0,14,2754,-1,1.25,1.55,0,2.754,1
0,15,5836,1,2,1.7,0,5.836,1
0,16,3931,1,1.85,1.7,0,3.931,1
0,17,3602,1,1.55,0.8,0,3.602,1
0,18,5674,-1,1.7,1.4,0,5.674,0
0,19,2567,1,1.7,1.1,0,2.567,1
0,20,2097,-1,1.1,1.55,0,2.097,1
0,21,3641,-1,0.95,0.8,0,3.641,0
0,22,4550,1,1.7,1.55,0,4.55,1
0,23,2973,1,1.7,1.4,0,2.973,1
0,24,2824,-1,1.25,1.7,0,2.824,1
0,25,3643,-1,2,2.3,0,3.643,1
0,26,2188,1,1.85,0.65,0,2.188,1
0,27,3321,1,1.85,1.1,0,3.321,1
0,28,6784,-1,1.85,2,0,6.784,1
0,29,2314,-1,1.1,2.3,0,2.314,1
0,30,2952,-1,1.1,2,0,2.952,1
0,31,8388,-1,1.25,1.4,0,8.388,1
0,32,5341,1,1.25,1.85,0,5.341,0
0,33,2183,1,1.1,0.95,0,2.183,1
0,34,3207,-1,0.95,1.85,0,3.207,1
0,35,3224,1,1.1,1.55,0,3.224,0
0,36,3476,1,1.7,1.85,0,3.476,0
0,37,2295,-1,0.65,1.7,0,2.295,1
0,38,3513,-1,1.55,2.3,0,3.513,1
0,39,4458,1,1.1,0.95,0,4.458,1
0,40,2348,1,1.55,1.1,0,2.348,1
0,41,2809,-1,1.4,1.7,0,2.809,1
0,42,1992,-1,1.1,1.7,0,1.992,1
0,43,1534,1,1.85,0.95,0,1.534,1
0,44,3023,-1,0.95,2.3,0,3.023,1
0,45,3452,-1,2,2,0,3.452,1
0,46,3961,1,2,1.55,0,3.961,1
0,47,2636,1,2,1.1,0,2.636,1
0,48,1898,1,2,1.1,0,1.898,1
0,49,1725,1,2.3,1.1,0,1.725,1
0,50,4336,1,2.3,2,0,4.336,1
0,51,2037,-1,0.95,1.1,0,2.037,1
0,52,2479,-1,0.35,1.85,0,2.479,1
0,53,3389,1,2.3,1.55,0,3.389,1
0,54,2339,-1,1.7,2,0,2.339,1
0,55,3609,-1,1.85,1.85,0,3.609,1
0,56,7371,1,2.3,1.55,0,7.371,1
0,57,2520,-1,1.55,2,0,2.52,1
0,58,1761,1,2,1.4,0,1.761,1
0,59,2593,1,1.85,1.7,0,2.593,1
0,60,5772,1,1.55,1.1,0,5.772,1
0,61,1945,-1,1.1,1.85,0,1.945,1
0,62,1621,1,1.1,0.35,0,1.621,1
0,63,2952,1,1.55,1.4,0,2.952,1
0,64,2725,-1,1.25,2,0,2.725,1
0,65,2591,-1,1.1,1.55,0,2.591,1
0,66,3523,1,1.4,1.1,0,3.523,1
0,67,7082,-1,1.25,1.1,0,7.082,0
0,68,4066,1,1.55,1.25,0,4.066,1
0,69,2602,-1,1.25,2,0,2.602,1
0,70,3239,1,1.4,1.25,0,3.239,1
0,71,1943,-1,1.55,1.55,0,1.943,1
0,72,3627,-1,1.85,2,0,3.627,1
0,73,6245,-1,1.7,1.55,0,6.245,0
0,74,4574,1,1.85,1.55,0,4.574,1
0,75,4327,1,1.7,0.65,0,4.327,1
0,76,6247,-1,1.1,2,0,6.247,1
0,77,2353,-1,1.1,1.25,0,2.353,1
0,78,4758,-1,0.95,1.55,0,4.758,1
0,79,2715,-1,1.1,1.85,0,2.715,1
0,80,1573,-1,0.35,1.1,0,1.573,1
0,81,1712,1,1.85,1.85,0,1.712,1
0,82,2040,-1,1.55,1.7,0,2.04,1
0,83,2372,1,2,1.85,0,2.372,1
0,84,4185,-1,2,1.7,0,4.185,0
0,85,3429,1,1.1,1.25,0,3.429,0
0,86,2044,-1,1.4,1.55,0,2.044,1
0,87,2542,1,2,0.95,0,2.542,1
0,88,1576,1,2,1.25,0,1.576,1
0,89,2497,-1,1.1,1.1,0,2.497,1
0,90,2511,1,1.85,1.1,0,2.511,1
0,91,1564,1,1.55,1.55,0,1.564,1
0,92,1616,1,1.55,0.95,0,1.616,1
0,93,2987,1,2,1.7,0,2.987,1
0,94,3625,-1,1.7,2,0,3.625,1
0,95,2226,-1,1.1,2,0,2.226,1
0,96,2179,-1,0.8,1.55,0,2.179,1
0,97,1847,-1,0.65,1.85,0,1.847,1
0,98,1569,1,1.25,0.65,0,1.569,1
0,99,2371,-1,1.1,2,0,2.371,1
0,100,2482,-1,1.1,1.85,0,2.482,1
0,101,2747,-1,0.95,1.1,0,2.747,1
0,102,2918,1,2,1.55,0,2.918,1
0,103,3706,1,2,1.85,0,3.706,1
0,104,3625,1,2,1.1,0,3.625,1
0,105,3938,-1,0.8,0.95,0,3.938,1
0,106,2329,-1,0.65,0.95,0,2.329,1
0,107,2028,-1,1.25,1.7,0,2.028,1
0,108,1665,1,1.85,0.35,0,1.665,1
0,109,1580,1,2.3,0.95,0,1.58,1
0,110,4189,-1,1.7,2.3,0,4.189,1
0,111,2626,-1,1.7,1.85,0,2.626,1
0,112,3783,1,1.7,1.25,0,3.783,1
0,113,2920,-1,1.55,2,0,2.92,1
0,114,4843,-1,1.25,1.1,0,4.843,0
0,115,5275,-1,1.4,1.7,0,5.275,1
0,116,5630,-1,1.1,1.4,0,5.63,1
0,117,1871,1,2,1.25,0,1.871,1
0,118,4173,1,1.85,1.25,0,4.173,1
0,119,2828,-1,1.55,1.85,0,2.828,1
1,0,4960,-1,0.2,0.5,1,4.96,1
1,1,6438,-1,0.5,0.65,1,6.438,1
1,2,5125,-1,0.2,0.65,1,5.125,1
1,3,4268,-1,0.2,0.5,1,4.268,1
1,4,4726,1,0.5,0.35,1,4.726,1
1,5,5392,1,0.5,0.35,1,5.392,1
1,6,3471,1,0.2,0,1,3.471,1
1,7,4299,1,0.5,0.35,1,4.299,1
1,8,4299,1,0.5,0.5,1,4.299,1
1,9,4088,-1,0.5,0.65,1,4.088,1
1,10,3147,-1,0,0.2,1,3.147,1
1,11,3923,-1,0,0.2,1,3.923,1
1,12,3889,-1,0.35,0.65,1,3.889,1
1,13,4426,-1,0,0.2,1,4.426,1
1,14,3035,1,0.65,0,1,3.035,1
1,15,4915,1,0.2,0.2,1,4.915,1
1,16,5395,1,0.5,0.35,1,5.395,1
1,17,5623,1,0.35,0.65,1,5.623,0
1,18,6208,1,0.35,0.2,1,6.208,1
1,19,2323,1,0.2,0,1,2.323,1
1,20,3491,-1,0.35,0.2,1,3.491,0
1,21,5468,1,0.65,0.2,1,5.468,1
1,22,6446,-1,0.5,0.65,1,6.446,1
1,23,4541,1,0.35,0.35,1,4.541,1
1,24,3991,-1,0,0.8,1,3.991,1
1,25,4235,-1,0.5,0.65,1,4.235,1
1,26,5489,1,0.65,0.65,1,5.489,1
1,27,6380,-1,0.5,0.8,1,6.38,1
1,28,3385,1,0.5,0.05,1,3.385,1
1,29,4479,1,0.5,0.5,1,4.479,1
1,30,3546,-1,0.2,0.65,1,3.546,1
1,31,3266,1,0.8,0.2,1,3.266,1
1,32,2267,1,0.2,0.05,1,2.267,1
1,33,3808,-1,0.2,0.35,1,3.808,1
1,34,4033,-1,0.65,0.35,1,4.033,0
1,35,3093,-1,0.2,0.5,1,3.093,1
1,36,3486,1,0.05,0.35,1,3.486,0
1,37,5401,-1,0.05,0.5,1,5.401,1
1,38,2833,-1,0.5,0.05,1,2.833,0
1,39,1746,-1,0,0.5,1,1.746,1
1,40,2741,1,0.5,0.2,1,2.741,1
1,41,2186,-1,0,0.65,1,2.186,1
1,42,2803,-1,0.05,0.2,1,2.803,1
1,43,1702,-1,0,0.35,1,1.702,1
1,44,2152,-1,0.2,0.2,1,2.152,1
1,45,1414,1,0.2,0.65,1,1.414,0
1,46,1979,1,0.5,0.35,1,1.979,1
1,47,1929,1,0.5,0.35,1,1.929,1
1,48,1618,-1,0,0.65,1,1.618,1
1,49,1534,-1,0.2,0,1,1.534,0
1,50,1384,-1,0.35,0.5,1,1.384,1
1,51,1343,1,0.2,0,1,1.343,1
1,52,1683,1,0.2,0,1,1.683,1
1,53,2062,1,0.65,0.05,1,2.062,1
1,54,1539,1,0.65,0.5,1,1.539,1
1,55,1601,1,0.65,0.65,1,1.601,1
1,56,1858,-1,0.05,0.2,1,1.858,1
1,57,1467,1,0.5,0.5,1,1.467,1
1,58,1867,-1,0.65,0.65,1,1.867,1
1,59,1450,-1,0.2,0.8,1,1.45,1
1,60,2378,-1,0.65,0.5,1,2.378,0
1,61,2138,1,0.35,0.5,1,2.138,0
1,62,1414,-1,0,0.2,1,1.414,1
1,63,1971,-1,0.65,0.35,1,1.971,0
1,64,1983,1,0.65,0.2,1,1.983,1
1,65,2258,1,0.65,0.2,1,2.258,1
1,66,1400,1,0.5,0.2,1,1.4,1
1,67,1192,1,0.5,0,1,1.192,1
1,68,1291,1,0.65,0.2,1,1.291,1
1,69,1035,1,0.35,0.2,1,1.035,1
1,70,2068,1,0.05,0.5,1,2.068,0
1,71,1164,1,0.5,0,1,1.164,1
1,72,1482,-1,0.65,0.5,1,1.482,0
1,73,1122,1,0.35,0,1,1.122,1
1,74,1763,1,0.05,0.2,1,1.763,0
1,75,2008,1,0.65,0.35,1,2.008,1
1,76,1831,1,0.05,0.5,1,1.831,0
1,77,2109,-1,0.35,0.5,1,2.109,1
1,78,1709,1,0.65,0.5,1,1.709,1
1,79,1236,-1,0.5,0.8,1,1.236,1
1,80,1524,1,0.2,0,1,1.524,1
1,81,1581,1,0.65,0.5,1,1.581,1
1,82,1901,1,0.2,0.05,1,1.901,1
1,83,1353,-1,0.35,0.5,1,1.353,1
1,84,1977,1,0.35,0,1,1.977,1
1,85,2311,-1,0.65,0.65,1,2.311,1
1,86,4034,1,0.35,0.2,1,4.034,1
1,87,4496,-1,0.05,0.65,1,4.496,1
1,88,3360,1,0.65,0.2,1,3.36,1
1,89,2518,1,0.2,0.05,1,2.518,1
1,90,2633,-1,0.5,0,1,2.633,0
1,91,1823,-1,0,0.2,1,1.823,1
1,92,1877,-1,0.35,0.5,1,1.877,1
1,93,1594,-1,0,0.2,1,1.594,1
1,94,1612,-1,0.35,0.5,1,1.612,1
1,95,1802,-1,0,0.5,1,1.802,1
1,96,1411,-1,0.2,0.65,1,1.411,1
1,97,1388,-1,0,0.5,1,1.388,1
1,98,1358,1,0.2,0.35,1,1.358,0
1,99,1781,-1,0.5,0.05,1,1.781,0
1,100,1297,-1,0.8,0.5,1,1.297,0
1,101,1113,-1,0.2,0.65,1,1.113,1
1,102,2545,-1,0.5,0.2,1,2.545,0
1,103,1569,-1,0.35,0.05,1,1.569,0
1,104,2018,-1,0.5,0.65,1,2.018,1
1,105,1145,1,0.5,0.2,1,1.145,1
1,106,1527,-1,0.2,0.35,1,1.527,1
1,107,1212,1,0.65,0.5,1,1.212,1
1,108,1160,1,0.5,0.65,1,1.16,0
1,109,1098,1,0.8,0.5,1,1.098,1
1,110,1057,-1,0.2,0.65,1,1.057,1
1,111,838,1,0.8,0,1,0.838,1
1,112,1373,-1,0.5,0.5,1,1.373,1
1,113,1476,-1,0,0.35,1,1.476,1
1,114,1187,-1,0.2,0.5,1,1.187,1
1,115,1047,1,0.35,0.65,1,1.047,0
1,116,1063,1,0.65,0.2,1,1.063,1
1,117,861,-1,0.35,0.35,1,0.861,1
1,118,1220,-1,0.2,0.35,1,1.22,1
1,119,757,1,0.65,0,1,0.757,1
2,0,4203,-1,1.1,2.3,2,4.203,1
2,1,4734,1,2.75,2.15,2,4.734,1
2,2,4187,-1,0.5,2.6,2,4.187,1
2,3,2945,-1,0,0,2,2.945,1
2,4,3554,1,2.3,0.95,2,3.554,1
2,5,5791,1,1.1,0.2,2,5.791,1
2,6,630,-1,1.1,1.25,2,0.63,1
2,7,3815,-1,0.95,1.95,2,3.815,1
2,8,5328,1,0.65,0,2,5.328,1
2,9,6404,-1,2.75,2.15,2,6.404,0
2,10,2052,-1,0,2.75,2,2.052,1
2,11,5112,1,1.7,1.25,2,5.112,1
2,12,2769,-1,2,3,2,2.769,1
2,13,3526,-1,2.6,2,2,3.526,0
2,14,6337,1,1.25,0.35,2,6.337,1
2,15,2655,-1,0.5,2.9,2,2.655,1
2,16,2385,1,0.95,0.5,2,2.385,1
2,17,1899,1,0.35,0.5,2,1.899,0
2,18,2165,1,1.1,0,2,2.165,1
2,19,2011,1,0.95,0,2,2.011,1
2,20,4543,1,0,0,2,4.543,1
2,21,3104,-1,0.35,3,2,3.104,1
2,22,3357,1,0.35,0.05,2,3.357,1
2,23,2669,-1,0,1.4,2,2.669,1
2,24,3132,1,0.65,0,2,3.132,1
2,25,8554,1,0.95,0.65,2,8.554,1
2,26,4247,-1,3,2.3,2,4.247,0
2,27,4917,-1,0.2,1.25,2,4.917,1
2,28,5040,1,0.35,1.1,2,5.04,0
2,29,2385,1,2.3,0,2,2.385,1
2,30,2413,-1,0.2,1.95,2,2.413,1
2,31,2459,-1,0.95,2.3,2,2.459,1
2,32,4277,-1,1.25,0.35,2,4.277,0
2,33,3671,1,0.05,0.2,2,3.671,0
2,34,1866,1,3,0,2,1.866,1
2,35,2340,-1,0.5,0.65,2,2.34,1
2,36,4751,-1,0,2.75,2,4.751,1
2,37,5185,1,0,0,2,5.185,1
2,38,2073,1,2,0.05,2,2.073,1
2,39,2031,-1,0,2,2,2.031,1
2,40,1964,-1,1.25,2.15,2,1.964,1
2,41,2323,1,2,0,2,2.323,1
2,42,2812,1,1.25,0.2,2,2.812,1
2,43,2225,-1,0,0,2,2.225,1
2,44,1786,1,1.95,0.2,2,1.786,1
2,45,1676,-1,0.2,0.05,2,1.676,0
2,46,2207,-1,0,0.35,2,2.207,1
2,47,1493,-1,0,0.5,2,1.493,1
2,48,5068,1,2.15,0.5,2,5.068,1
2,49,3112,1,2.15,2.75,2,3.112,0
2,50,4139,1,0.5,1.7,2,4.139,0
2,51,2312,1,2.9,0.5,2,2.312,1
2,52,2852,-1,0,0.35,2,2.852,1
2,53,3026,1,2,2.6,2,3.026,0
2,54,3254,-1,0.65,2.3,2,3.254,1
2,55,2383,-1,0,2.15,2,2.383,1
2,56,2269,1,2.75,0,2,2.269,1
2,57,1511,-1,0.05,2.75,2,1.511,1
2,58,14774,-1,1.25,1.7,2,14.774,1
2,59,2133,1,2.15,0,2,2.133,1
2,60,3904,1,2.9,1.1,2,3.904,1
2,61,3875,-1,0.2,0.2,2,3.875,1
2,62,2880,-1,0,0.65,2,2.88,1
2,63,1806,-1,0,0.65,2,1.806,1
2,64,2263,-1,0.35,2.85,2,2.263,1
2,65,7731,1,2.6,0.5,2,7.731,1
2,66,3051,-1,0.35,1.25,2,3.051,1
2,67,2542,-1,0.5,2.6,2,2.542,1
2,68,3003,1,2.3,0.95,2,3.003,1
2,69,2876,1,2.6,2.75,2,2.876,0
2,70,1992,1,1.1,0.65,2,1.992,1
2,71,2447,-1,0.2,1.1,2,2.447,1
2,72,4018,-1,0,2.3,2,4.018,1
2,73,3263,1,0.35,1.25,2,3.263,0
2,74,2281,-1,0,0,2,2.281,1
2,75,6951,-1,0.35,0.5,2,6.951,1
2,76,3526,1,1.95,0.95,2,3.526,1
2,77,2094,1,3,0.35,2,2.094,1
2,78,3462,-1,2.3,2.85,2,3.462,1
2,79,1916,1,1.1,1.4,2,1.916,0
2,80,4374,-1,1.25,1.1,2,4.374,0
2,81,1255,1,0,3,2,1.255,0
2,82,2214,1,0.5,0,2,2.214,1
2,83,1485,1,2.75,0.05,2,1.485,1
2,84,1662,1,0.35,0,2,1.662,1
2,85,1511,-1,0.5,2.15,2,1.511,1
2,86,2811,-1,2.15,2.75,2,2.811,1
2,87,2105,1,2.75,0,2,2.105,1
2,88,1197,-1,0,2.15,2,1.197,1
2,89,1095,-1,0,1.1,2,1.095,1
2,90,2910,-1,1.7,0.5,2,2.91,0
2,91,430,-1,0,0.95,2,0.43,1
2,92,2373,1,2.3,0,2,2.373,1
2,93,1275,-1,1.1,2.9,2,1.275,1
2,94,2077,-1,0.65,0.95,2,2.077,1
2,95,4286,1,2.3,1.1,2,4.286,1
2,96,3626,-1,2.3,3,2,3.626,1
2,97,2098,-1,2.75,2.6,2,2.098,0
2,98,2018,-1,0.5,0.35,2,2.018,0
2,99,2155,-1,1.1,0.35,2,2.155,0
2,100,1312,-1,0,2.3,2,1.312,1
2,101,2025,-1,0,0,2,2.025,1
2,102,2711,-1,0.35,0,2,2.711,0
2,103,1879,1,0.05,0.35,2,1.879,0
2,104,2481,1,2.3,0.65,2,2.481,1
2,105,1066,-1,1.4,1.1,2,1.066,0
2,106,1863,1,3,2,2,1.863,1
2,107,6252,-1,0.5,0.35,2,6.252,0
2,108,1516,1,0.65,0.5,2,1.516,1
2,109,1693,-1,0.05,2,2,1.693,1
2,110,1415,1,2.6,0.5,2,1.415,1
2,111,1477,1,2.15,0,2,1.477,1
2,112,1115,-1,0.65,1.1,2,1.115,1
2,113,2117,-1,0.95,2.3,2,2.117,1
2,114,3668,1,1.4,0,2,3.668,1
2,115,1212,1,2.15,1.25,2,1.212,1
2,116,1658,1,2.85,0.35,2,1.658,1
2,117,1081,-1,0.5,0.95,2,1.081,1
2,118,1605,1,0.2,0.2,2,1.605,1
2,119,2735,1,2.85,2.3,2,2.735,1
3,0,4777,-1,0,0.95,3,4.777,1
3,1,7090,-1,0.05,0.95,3,7.09,1
3,2,4338,1,1.55,0.05,3,4.338,1
3,3,11097,-1,1.1,0.95,3,11.097,0
3,4,5289,-1,0.95,1.1,3,5.289,1
3,5,3754,1,1.1,0.5,3,3.754,1
3,6,3146,-1,0.35,1.1,3,3.146,1
3,7,2635,1,1.7,1.4,3,2.635,1
3,8,3422,-1,0,0.5,3,3.422,1
3,9,9677,1,2.45,1.1,3,9.677,1
3,10,2342,-1,0,0.05,3,2.342,1
3,11,2643,1,1.25,0.5,3,2.643,1
3,12,2593,-1,0.95,1.55,3,2.593,1
3,13,2975,-1,0,0.05,3,2.975,1
3,14,3094,-1,0.95,1.1,3,3.094,1
3,15,2419,1,0.65,0,3,2.419,1
3,16,9847,1,1.4,0.95,3,9.847,1
3,17,2667,1,0.95,0.05,3,2.667,1
3,18,2451,1,0.65,0,3,2.451,1
3,19,1832,-1,0,0.05,3,1.832,1
3,20,4519,-1,0.05,0.95,3,4.519,1
3,21,2357,-1,0.05,1.1,3,2.357,1
3,22,2320,-1,0.35,0.8,3,2.32,1
3,23,3029,-1,0.35,1.55,3,3.029,1
3,24,3476,-1,0.65,1.7,3,3.476,1
3,25,2531,1,0.95,0,3,2.531,1
3,26,4449,-1,0.8,0.95,3,4.449,1
3,27,2778,1,1.4,0,3,2.778,1
3,28,3198,1,1.25,0,3,3.198,1
3,29,2604,1,0.95,0,3,2.604,1
3,30,1736,-1,0,1.55,3,1.736,1
3,31,1528,-1,0,1.1,3,1.528,1
3,32,7987,-1,0,0,3,7.987,1
3,33,1808,-1,0.05,0.65,3,1.808,1
3,34,7586,1,0.95,0.95,3,7.586,1
3,35,2152,1,0.95,0,3,2.152,1
3,36,5162,1,0.95,1.25,3,5.162,0
3,37,4705,1,0.95,0.05,3,4.705,1
3,38,8093,-1,0.95,2.3,3,8.093,1
3,39,8516,-1,0.35,0.8,3,8.516,1
3,40,8523,1,1.55,1.1,3,8.523,1
3,41,2491,1,0.95,0.05,3,2.491,1
3,42,2304,-1,0,0.65,3,2.304,1
3,43,2587,1,1.4,0.05,3,2.587,1
3,44,2710,1,2.3,0.65,3,2.71,1
3,45,4325,1,0.65,0.05,3,4.325,1
3,46,2295,1,0.65,0.05,3,2.295,1
3,47,2445,-1,0.8,0.65,3,2.445,0
3,48,3839,1,1.55,0.95,3,3.839,1
3,49,2748,1,1.55,0.35,3,2.748,1
3,50,2838,1,0.65,0.5,3,2.838,1
3,51,5352,1,1.55,2.45,3,5.352,0
3,52,3472,-1,0.65,1.4,3,3.472,1
3,53,1811,-1,0.8,0.8,3,1.811,1
3,54,3039,1,0.5,0,3,3.039,1
3,55,2841,1,0.35,0.05,3,2.841,1
3,56,11103,1,0.8,0.35,3,11.103,1
3,57,1573,-1,0.65,2.45,3,1.573,1
3,58,1916,1,1.55,0,3,1.916,1
3,59,3020,1,0.05,0,3,3.02,1
3,60,3972,1,2.3,0.95,3,3.972,1
3,61,3019,-1,0.8,0.95,3,3.019,1
3,62,6740,1,0.5,1.1,3,6.74,0
3,63,2329,1,0.95,0.8,3,2.329,1
3,64,4697,-1,1.1,2.45,3,4.697,1
3,65,6004,-1,0.35,0.8,3,6.004,1
3,66,2018,1,1.1,0,3,2.018,1
3,67,2470,1,0.2,1.55,3,2.47,0
3,68,2635,1,1.25,1.4,3,2.635,0
3,69,1999,1,1.1,0.05,3,1.999,1
3,70,3486,-1,0.65,1.1,3,3.486,1
3,71,1772,1,1.1,0.95,3,1.772,1
3,72,3926,1,0.95,0.05,3,3.926,1
3,73,2001,-1,0,0.95,3,2.001,1
3,74,2195,-1,1.4,1.7,3,2.195,1
3,75,2002,-1,0,1.4,3,2.002,1
3,76,1932,1,0.05,0,3,1.932,1
3,77,2868,1,0.65,2.45,3,2.868,0
3,78,2314,-1,0.2,0.65,3,2.314,1
3,79,2149,1,0.95,1.55,3,2.149,0
3,80,4482,1,0.05,0.65,3,4.482,0
3,81,2049,1,0.65,0.8,3,2.049,0
3,82,2621,-1,1.1,0.65,3,2.621,0
3,83,3313,-1,1.1,0.95,3,3.313,0
3,84,1616,-1,1.55,0.95,3,1.616,0
3,85,1869,1,2.45,0.65,3,1.869,1
3,86,4355,1,0.8,0.35,3,4.355,1
3,87,1976,-1,0.05,0.95,3,1.976,1
3,88,1653,-1,0.05,0.95,3,1.653,1
3,89,2198,-1,0.5,1.25,3,2.198,1
3,90,1692,1,0.8,0.35,3,1.692,1
3,91,1836,-1,0,0.95,3,1.836,1
3,92,1472,1,0.8,0.8,3,1.472,1
3,93,4448,1,2.45,0.65,3,4.448,1
3,94,1249,-1,0.05,1.55,3,1.249,1
3,95,5278,-1,0.5,0.65,3,5.278,1
3,96,2021,-1,0,0.95,3,2.021,1
3,97,7385,1,0.95,0.8,3,7.385,1
3,98,2576,-1,1.25,0.95,3,2.576,0
3,99,1866,1,0.65,0.05,3,1.866,1
3,100,4400,1,0.95,1.1,3,4.4,0
3,101,1694,1,0.05,0,3,1.694,1
3,102,2222,1,2.45,1.55,3,2.222,1
3,103,1475,-1,0.05,1.4,3,1.475,1
3,104,4503,-1,1.1,1.55,3,4.503,1
3,105,1636,1,0.65,0.2,3,1.636,1
3,106,1509,-1,0,0.65,3,1.509,1
3,107,1361,-1,1.55,0.2,3,1.361,0
3,108,1715,-1,0.05,0.35,3,1.715,1
3,109,2088,1,1.4,0.65,3,2.088,1
3,110,1992,1,1.1,0.35,3,1.992,1
3,111,2412,1,1.7,0.65,3,2.412,1
3,112,2200,1,0.95,0,3,2.2,1
3,113,3664,-1,0.65,2.3,3,3.664,1
3,114,9602,1,1.4,1.25,3,9.602,1
3,115,2676,-1,0.95,1.4,3,2.676,1
3,116,1788,1,0,0,3,1.788,1
3,117,1656,-1,0,1.25,3,1.656,1
3,118,1366,-1,0.05,0.65,3,1.366,1
3,119,3515,-1,0.95,0.95,3,3.515,1
4,0,5222,1,0,0,4,5.222,1
4,1,3005,1,0.65,0,4,3.005,1
4,2,4264,-1,0,0,4,4.264,1
4,3,3576,-1,0.5,0.95,4,3.576,1
4,4,4101,1,0.8,0.65,4,4.101,1
4,5,3769,-1,0,0.8,4,3.769,1
4,6,5630,-1,0,0,4,5.63,1
4,7,7975,1,0.5,0,4,7.975,1
4,8,3312,-1,0,0.65,4,3.312,1
4,9,6307,-1,0.05,0.2,4,6.307,1
4,10,2421,-1,0,0.8,4,2.421,1
4,11,3952,1,0.6,0.35,4,3.952,1
4,12,3593,-1,0,0.05,4,3.593,1
4,13,2755,1,1.1,0,4,2.755,1
4,14,2761,1,0.2,0,4,2.761,1
4,15,2862,-1,0.35,0.8,4,2.862,1
4,16,3387,1,0.05,0,4,3.387,1
4,17,7527,-1,0.5,0.65,4,7.527,1
4,18,2628,-1,0,0,4,2.628,1
4,19,2234,-1,0,0.05,4,2.234,1
4,20,7720,-1,0.5,1.1,4,7.72,1
4,21,2831,-1,0,0.8,4,2.831,1
4,22,9213,1,0,0,4,9.213,1
4,23,2965,-1,0,0.95,4,2.965,1
4,24,2774,1,0.05,0,4,2.774,1
4,25,5143,-1,0,0,4,5.143,1
4,26,2852,-1,0,1.1,4,2.852,1
4,27,4989,-1,0,0.5,4,4.989,1
4,28,3957,1,0.5,0,4,3.957,1
4,29,2622,-1,0,0.95,4,2.622,1
4,30,3354,1,1.1,0.05,4,3.354,1
4,31,1733,1,0.6,0,4,1.733,1
4,32,3966,-1,0,0,4,3.966,1
4,33,5645,-1,0.05,0,4,5.645,0
4,34,7195,-1,0,0,4,7.195,1
4,35,1676,1,1.1,0,4,1.676,1
4,36,1211,1,0.8,0.5,4,1.211,1
4,37,1440,1,0,0,4,1.44,1
4,38,3679,-1,0.05,0.2,4,3.679,1
4,39,2146,-1,0,0,4,2.146,1
4,40,2987,1,0,0,4,2.987,1
4,41,1400,1,0,0,4,1.4,1
4,42,1921,1,0,0,4,1.921,1
4,43,5268,-1,0.8,0.8,4,5.268,1
4,44,5303,-1,0,1.1,4,5.303,1
4,45,1447,1,0.8,0,4,1.447,1
4,46,1275,-1,0,0.5,4,1.275,1
4,47,2740,-1,0,0.2,4,2.74,1
4,48,1491,1,0,0,4,1.491,1
4,49,1521,-1,0.5,0.8,4,1.521,1
4,50,1373,-1,0,0,4,1.373,1
4,51,1781,1,0.5,0,4,1.781,1
4,52,2364,1,0.65,0.05,4,2.364,1
4,53,3183,1,0.65,0.5,4,3.183,1
4,54,2299,1,0,0,4,2.299,1
4,55,1407,1,1.1,0,4,1.407,1
4,56,1452,1,0.8,0.35,4,1.452,1
4,57,1164,-1,0,0.65,4,1.164,1
4,58,2983,1,0.35,0,4,2.983,1
4,59,1923,1,0.05,0,4,1.923,1
4,60,876,-1,0,1.1,4,0.876,1
4,61,2857,1,0,0,4,2.857,1
4,62,2844,1,0,0,4,2.844,1
4,63,2683,1,0.8,0,4,2.683,1
4,64,1196,1,0,0,4,1.196,1
4,65,1227,-1,0,0.05,4,1.227,1
4,66,1266,1,0.8,0,4,1.266,1
4,67,1336,1,0.65,0,4,1.336,1
4,68,2497,1,0.8,0.05,4,2.497,1
4,69,1481,1,0.8,0,4,1.481,1
4,70,2890,-1,0.35,0,4,2.89,0
4,71,1645,-1,0.05,1.1,4,1.645,1
4,72,1103,1,0.2,0.05,4,1.103,1
4,73,2478,1,0,0,4,2.478,1
4,74,1333,-1,0.05,0.95,4,1.333,1
4,75,1416,1,0.05,0,4,1.416,1
4,76,1183,-1,0,0.5,4,1.183,1
4,77,2441,-1,0,0,4,2.441,1
4,78,1500,-1,0,0.2,4,1.5,1
4,79,1450,-1,0,0.8,4,1.45,1
4,80,1562,-1,0,0.6,4,1.562,1
4,81,1767,-1,0,0,4,1.767,1
4,82,888,-1,0.05,0.8,4,0.888,1
4,83,1439,1,0.2,0.05,4,1.439,1
4,84,1676,1,0.65,0,4,1.676,1
4,85,1546,-1,0.35,0.6,4,1.546,1
4,86,1249,1,1.1,0,4,1.249,1
4,87,1145,1,0.95,0,4,1.145,1
4,88,1512,1,0,0.35,4,1.512,0
4,89,1367,-1,0,0.8,4,1.367,1
4,90,1522,1,0.95,0.05,4,1.522,1
4,91,1074,1,0,0,4,1.074,1
4,92,934,1,1.1,0.5,4,0.934,1
4,93,1556,-1,0,0.5,4,1.556,1
4,94,1114,-1,0,0.8,4,1.114,1
4,95,1621,-1,0,0.35,4,1.621,1
4,96,2184,-1,0,0,4,2.184,1
4,97,1325,1,0.5,0,4,1.325,1
4,98,1246,-1,0,0,4,1.246,1
4,99,1597,-1,0,0.05,4,1.597,1
4,100,2734,1,0.8,0.8,4,2.734,1
4,101,1054,-1,0,0.65,4,1.054,1
4,102,4260,1,0.2,0,4,4.26,1
4,103,1232,-1,0,0,4,1.232,1
4,104,1732,-1,0,0,4,1.732,1
4,105,843,-1,0,1.1,4,0.843,1
4,106,1250,1,0,0.05,4,1.25,0
4,107,1576,1,0.05,0,4,1.576,1
4,108,1219,-1,0.65,0.8,4,1.219,1
4,109,1461,-1,0,0,4,1.461,1
4,110,2581,-1,0,0.05,4,2.581,1
4,111,985,1,0.95,0,4,0.985,1
4,112,961,1,0.8,0,4,0.961,1
4,113,978,1,0.8,0,4,0.978,1
4,114,4419,-1,0,0,4,4.419,1
4,115,1302,-1,0,0,4,1.302,1
4,116,1153,1,0,0,4,1.153,1
4,117,1033,-1,0.05,0.65,4,1.033,1
4,118,957,1,0.95,0.5,4,0.957,1
4,119,1271,1,0,0,4,1.271,1
5,0,4573,-1,0.5,0.65,5,4.573,1
5,1,3339,-1,0.5,0.8,5,3.339,1
5,2,5410,1,1.4,0,5,5.41,1
5,3,10236,1,0.65,0.8,5,10.236,0
5,4,5784,-1,0.5,0.65,5,5.784,1
5,5,3272,1,1.1,0.5,5,3.272,1
5,6,2593,1,0.8,0.65,5,2.593,1
5,7,4628,1,1.1,0.65,5,4.628,1
5,8,2522,1,0.65,0,5,2.522,1
5,9,9605,-1,0.65,0.8,5,9.605,1
5,10,1583,1,0.2,0.95,5,1.583,0
5,11,5220,-1,0.8,1.1,5,5.22,1
5,12,7521,1,0.65,0.65,5,7.521,1
5,13,2083,-1,0,0.5,5,2.083,1
5,14,3647,-1,0.95,0.8,5,3.647,0
5,15,2790,-1,0,0.5,5,2.79,1
5,16,4538,-1,0.95,1.1,5,4.538,1
5,17,2889,-1,0.35,0.95,5,2.889,1
5,18,4539,1,0.2,0.8,5,4.539,0
5,19,2411,1,0.8,0.8,5,2.411,1
5,20,1791,-1,0.35,0.65,5,1.791,1
5,21,11451,-1,0.95,0.65,5,11.451,0
5,22,12467,-1,0.65,0.95,5,12.467,1
5,23,3323,-1,0.5,0.5,5,3.323,1
5,24,3139,-1,0.95,0.5,5,3.139,0
5,25,6585,-1,0.8,1.1,5,6.585,1
5,26,2175,1,0.95,0.35,5,2.175,1
5,27,9514,1,0.65,1.1,5,9.514,0
5,28,2883,1,1.25,1.1,5,2.883,1
5,29,6008,1,1.1,0.8,5,6.008,1
5,30,2064,1,1.1,0.2,5,2.064,1
5,31,2596,-1,0.95,0.65,5,2.596,0
5,32,7987,-1,0.95,0.95,5,7.987,1
5,33,3846,-1,0.8,0.95,5,3.846,1
5,34,4457,-1,0.35,0.95,5,4.457,1
5,35,2606,-1,0.5,0.8,5,2.606,1
5,36,2338,-1,0.5,0.65,5,2.338,1
5,37,9804,-1,0.65,0.8,5,9.804,1
5,38,4005,1,1.4,0.95,5,4.005,1
5,39,4239,1,0.8,0.5,5,4.239,1
5,40,2777,1,0.5,0,5,2.777,1
5,41,1763,-1,0,1.1,5,1.763,1
5,42,2346,-1,0.65,0.8,5,2.346,1
5,43,1407,1,0.65,0.5,5,1.407,1
5,44,1645,1,1.25,0.8,5,1.645,1
5,45,2029,1,0.65,0.5,5,2.029,1
5,46,1395,1,0.5,0,5,1.395,1
5,47,1998,-1,0.65,1.1,5,1.998,1
5,48,2131,1,0.8,0.65,5,2.131,1
5,49,2170,-1,0.35,0.65,5,2.17,1
5,50,2591,-1,0.95,0.95,5,2.591,1
5,51,2569,-1,0.2,1.1,5,2.569,1
5,52,2201,1,0.8,0.95,5,2.201,0
5,53,3203,-1,0.2,0.35,5,3.203,1
5,54,1679,1,0.8,0.95,5,1.679,0
5,55,11481,-1,0.8,0.65,5,11.481,0
5,56,2299,-1,0.95,0.65,5,2.299,0
5,57,4372,-1,0.35,1.1,5,4.372,1
5,58,3020,1,1.1,0.5,5,3.02,1
5,59,2617,-1,0.8,0.8,5,2.617,1
5,60,2997,1,0.95,0.8,5,2.997,1
5,61,3094,1,0.95,0.35,5,3.094,1
5,62,1646,1,1.1,0.95,5,1.646,1
5,63,2145,-1,0.35,0.5,5,2.145,1
5,64,1666,1,0.5,0.8,5,1.666,0
5,65,2162,1,1.1,0.65,5,2.162,1
5,66,4106,-1,0.95,1.1,5,4.106,1
5,67,3549,1,0.65,0.95,5,3.549,0
5,68,2059,1,1.1,0.95,5,2.059,1
5,69,1836,1,0.95,0.35,5,1.836,1
5,70,2797,-1,0.95,1.4,5,2.797,1
5,71,3814,1,0.65,0.35,5,3.814,1
5,72,1552,1,0.5,0.95,5,1.552,0
5,73,1761,1,1.1,0.8,5,1.761,1
5,74,1830,1,0.8,0.5,5,1.83,1
5,75,4063,-1,0.5,0.8,5,4.063,1
5,76,2243,1,0.65,0.95,5,2.243,0
5,77,2007,1,0.95,0,5,2.007,1
5,78,1930,1,0.65,0.65,5,1.93,1
5,79,1921,1,0.65,0.5,5,1.921,1
5,80,3888,1,0.5,1.1,5,3.888,0
5,81,2296,-1,0.65,0.65,5,2.296,1
5,82,2063,-1,0.95,1.1,5,2.063,1
5,83,1723,1,0.95,0.2,5,1.723,1
5,84,1541,-1,0.65,1.1,5,1.541,1
5,85,1576,-1,0,1.4,5,1.576,1
5,86,1790,1,0.8,0.5,5,1.79,1
5,87,1449,-1,0.8,0.65,5,1.449,0
5,88,2175,1,0.65,0.35,5,2.175,1
5,89,2671,-1,0.65,0.65,5,2.671,1
5,90,3138,-1,0,0.65,5,3.138,1
5,91,2577,1,1.1,0.95,5,2.577,1
5,92,1451,1,0.5,0.35,5,1.451,1
5,93,1971,1,0.8,0.65,5,1.971,1
5,94,1307,-1,0.8,0.8,5,1.307,1
5,95,2366,-1,0.5,0.8,5,2.366,1
5,96,2330,-1,0.95,0.8,5,2.33,0
5,97,2702,-1,0.35,0.2,5,2.702,0
5,98,1837,-1,0.35,0.95,5,1.837,1
5,99,2763,1,0.95,0.35,5,2.763,1
5,100,1789,-1,0.8,1.25,5,1.789,1
5,101,2434,1,0.8,0.8,5,2.434,1
5,102,2746,-1,1.1,0.65,5,2.746,0
5,103,1398,1,0.8,0.5,5,1.398,1
5,104,1415,-1,0.35,0.95,5,1.415,1
5,105,1682,-1,0.95,1.1,5,1.682,1
5,106,1284,1,1.1,0.35,5,1.284,1
5,107,2749,-1,0.8,0.2,5,2.749,0
5,108,1729,1,1.1,0,5,1.729,1
5,109,1498,1,1.1,0.95,5,1.498,1
5,110,1516,1,0.5,0.5,5,1.516,1
5,111,1479,-1,0.65,0.8,5,1.479,1
5,112,2344,1,1.1,0.8,5,2.344,1
5,113,1706,-1,0,0.95,5,1.706,1
5,114,1624,-1,0.8,1.1,5,1.624,1
5,115,1659,-1,0.35,0.65,5,1.659,1
5,116,1798,-1,1.1,1.25,5,1.798,1
5,117,1976,1,0.65,0.35,5,1.976,1
5,118,1669,-1,0.8,0.5,5,1.669,0
5,119,1403,-1,0.5,1.1,5,1.403,1
6,0,3077,1,0.65,0.65,6,3.077,1
6,1,2443,-1,0.5,1.4,6,2.443,1
6,2,3851,-1,0.65,0.35,6,3.851,0
6,3,1674,-1,0,0.95,6,1.674,1
6,4,4085,1,0.8,0.8,6,4.085,1
6,5,4310,1,0.65,0.65,6,4.31,1
6,6,2851,-1,0.95,0.5,6,2.851,0
6,7,6580,1,0.65,0.95,6,6.58,0
6,8,2112,-1,0.95,0.8,6,2.112,0
6,9,3459,1,0.95,0.95,6,3.459,1
6,10,2083,1,0.95,0,6,2.083,1
6,11,3810,-1,0.8,0.95,6,3.81,1
6,12,2582,-1,0.8,0.95,6,2.582,1
6,13,1965,1,0.65,0.8,6,1.965,0
6,14,2053,1,0.95,1.4,6,2.053,0
6,15,2075,-1,0.65,0.65,6,2.075,1
6,16,2327,-1,0.95,0.95,6,2.327,1
6,17,7299,-1,0.8,0.8,6,7.299,1
6,18,3499,1,0.65,0.8,6,3.499,0
6,19,2058,-1,0.35,1.25,6,2.058,1
6,20,2343,-1,0.8,0.65,6,2.343,0
6,21,3332,1,0.95,0.8,6,3.332,1
6,22,5118,1,0.95,0.65,6,5.118,1
6,23,5818,1,1.1,0.65,6,5.818,1
6,24,5480,1,0.65,0.95,6,5.48,0
6,25,2262,1,1.4,0.65,6,2.262,1
6,26,1885,1,0.8,0.5,6,1.885,1
6,27,4647,1,0.5,0.8,6,4.647,0
6,28,2795,1,0,0.8,6,2.795,0
6,29,2391,-1,0.8,0.8,6,2.391,1
6,30,2132,-1,0.65,0.8,6,2.132,1
6,31,1753,-1,0.65,0.95,6,1.753,1
6,32,1565,1,0.95,0.8,6,1.565,1
6,33,5829,-1,0.8,0.95,6,5.829,1
6,34,1473,1,0.95,0.95,6,1.473,1
6,35,2756,-1,0.95,1.1,6,2.756,1
6,36,9179,1,0.65,0.95,6,9.179,0
6,37,4856,1,0.95,0.8,6,4.856,1
6,38,4454,1,0.65,0.65,6,4.454,1
6,39,3803,-1,0.65,0.95,6,3.803,1
6,40,3112,1,0.65,0.65,6,3.112,1
6,41,1836,1,0.5,0.95,6,1.836,0
6,42,2887,-1,1.55,1.25,6,2.887,0
6,43,1906,1,1.1,0.95,6,1.906,1
6,44,2401,-1,0.65,0.95,6,2.401,1
6,45,3320,1,0.95,0.65,6,3.32,1
6,46,1803,-1,0,0.5,6,1.803,1
6,47,3124,1,0.65,0.65,6,3.124,1
6,48,2448,-1,0.65,1.4,6,2.448,1
6,49,2020,-1,0.8,0.5,6,2.02,0
6,50,2198,-1,0.8,0.8,6,2.198,1
6,51,4057,-1,0.35,0.65,6,4.057,1
6,52,1457,-1,0,0.5,6,1.457,1
6,53,2901,-1,1.4,0.95,6,2.901,0
6,54,1649,-1,0.8,0.95,6,1.649,1
6,55,1330,1,0.95,0.65,6,1.33,1
6,56,3243,1,0.65,0.8,6,3.243,0
6,57,3476,1,0.95,0.8,6,3.476,1
6,58,4326,1,0.95,0.95,6,4.326,1
6,59,1492,1,0.65,0.95,6,1.492,0
6,60,3291,1,0.95,0.35,6,3.291,1
6,61,1686,-1,0.8,0.65,6,1.686,0
6,62,1471,1,1.4,0.5,6,1.471,1
6,63,1613,-1,0.8,0.95,6,1.613,1
6,64,1615,1,0.35,0.65,6,1.615,0
6,65,2575,1,0.95,0.8,6,2.575,1
6,66,1202,-1,0.8,0.95,6,1.202,1
6,67,969,1,0.8,0.95,6,0.969,0
6,68,1993,1,0.8,0.8,6,1.993,1
6,69,3277,-1,0.65,1.55,6,3.277,1
6,70,1123,1,0.95,0,6,1.123,1
6,71,3412,1,0.95,0.65,6,3.412,1
6,72,1591,1,0.95,0,6,1.591,1
6,73,1052,-1,0,0.65,6,1.052,1
6,74,470,1,0.95,0.65,6,0.47,1
6,75,3046,1,0.95,0.8,6,3.046,1
6,76,5454,-1,0.95,1.4,6,5.454,1
6,77,1520,1,0.95,0.95,6,1.52,1
6,78,1898,-1,0.95,0.95,6,1.898,1
6,79,2551,1,0.8,0.65,6,2.551,1
6,80,1843,1,0.95,0.8,6,1.843,1
6,81,1358,1,1.25,1.55,6,1.358,0
6,82,2228,1,0.8,0.95,6,2.228,0
6,83,1717,-1,0.65,0.8,6,1.717,1
6,84,1157,1,1.25,0.35,6,1.157,1
6,85,1250,-1,0,0.95,6,1.25,1
6,86,1283,1,0.65,0,6,1.283,1
6,87,1389,1,0.95,0,6,1.389,1
6,88,1805,-1,0.8,0.95,6,1.805,1
6,89,1956,-1,0.5,0.8,6,1.956,1
6,90,2259,-1,0.65,0.65,6,2.259,1
6,91,1560,-1,0.35,0.95,6,1.56,1
6,92,974,-1,0.95,0.95,6,0.974,1
6,93,1270,1,0.95,0.95,6,1.27,1
6,94,1251,-1,0,0.95,6,1.251,1
6,95,1576,-1,0.65,1.1,6,1.576,1
6,96,1882,1,0.8,0.65,6,1.882,1
6,97,2316,1,1.4,0.95,6,2.316,1
6,98,884,-1,0,0.95,6,0.884,1
6,99,1595,-1,0.95,0.65,6,1.595,0
6,100,2383,-1,0.95,0.65,6,2.383,0
6,101,1810,1,0.8,0.8,6,1.81,1
6,102,1526,-1,0.95,0.95,6,1.526,1
6,103,2161,1,0.8,0.95,6,2.161,0
6,104,1758,-1,0.65,0.65,6,1.758,1
6,105,1407,-1,0.65,0.65,6,1.407,1
6,106,1908,1,0.95,0.8,6,1.908,1
6,107,3460,-1,0.65,0.95,6,3.46,1
6,108,1847,1,0.5,0,6,1.847,1
6,109,2685,-1,0.95,0.95,6,2.685,1
6,110,1692,1,0.65,0.35,6,1.692,1
6,111,1254,1,0.5,0,6,1.254,1
6,112,1621,-1,0.95,0.65,6,1.621,0
6,113,1366,-1,0.95,0.65,6,1.366,0
6,114,1707,-1,0.8,0,6,1.707,0
6,115,1089,1,0.95,0.8,6,1.089,1
6,116,1351,-1,0.8,0.65,6,1.351,0
6,117,2537,-1,0.65,0.65,6,2.537,1
6,118,1559,1,1.55,0.65,6,1.559,1
6,119,1358,-1,0.65,0.95,6,1.358,1
7,0,1836,-1,1.1,0.95,7,1.836,0
7,1,4858,-1,0.5,0.95,7,4.858,1
7,2,2161,-1,1.55,1.1,7,2.161,0
7,3,3118,1,1.1,0.35,7,3.118,1
7,4,3729,-1,0.35,0.5,7,3.729,1
7,5,4798,-1,1.1,2.45,7,4.798,1
7,6,2374,1,1.4,1.1,7,2.374,1
7,7,1682,-1,1.1,0.95,7,1.682,0
7,8,2076,1,1.1,1.1,7,2.076,1
7,9,2728,1,1.25,0.5,7,2.728,1
7,10,4007,-1,0.95,1.1,7,4.007,1
7,11,1498,-1,0.95,1.1,7,1.498,1
7,12,1177,-1,1.25,1.1,7,1.177,0
7,13,1643,1,1.4,0.95,7,1.643,1
7,14,4121,1,2,1.1,7,4.121,1
7,15,3232,-1,2,0.95,7,3.232,0
7,16,1724,1,1.1,1.1,7,1.724,1
7,17,3165,1,2,0.35,7,3.165,1
7,18,3505,-1,0.5,2.45,7,3.505,1
7,19,3333,-1,0.95,1.1,7,3.333,1
7,20,3004,-1,1.55,1.85,7,3.004,1
7,21,4601,1,1.1,0.65,7,4.601,1
7,22,4246,1,2,1.4,7,4.246,1
7,23,3601,-1,0.5,0.95,7,3.601,1
7,24,5343,-1,0.95,2,7,5.343,1
7,25,2599,1,2,1.25,7,2.599,1
7,26,3480,1,1.55,1.1,7,3.48,1
7,27,5000,-1,0.35,1.1,7,5,1
7,28,2194,1,0.95,1.4,7,2.194,0
7,29,5391,1,0.95,0.95,7,5.391,1
7,30,3898,1,0.95,0.95,7,3.898,1
7,31,2451,1,2.45,1.1,7,2.451,1
7,32,5186,1,2.45,2,7,5.186,1
7,33,2889,-1,0.95,1.1,7,2.889,1
7,34,2113,1,1.1,1.25,7,2.113,0
7,35,2534,-1,0.95,2.3,7,2.534,1
7,36,5470,-1,1.1,1.1,7,5.47,1
7,37,2991,-1,0.95,1.25,7,2.991,1
7,38,2434,1,0.95,1.55,7,2.434,0
7,39,2875,-1,2,2.45,7,2.875,1
7,40,2465,-1,0.8,1.1,7,2.465,1
7,41,2565,-1,1.1,1.55,7,2.565,1
7,42,3585,-1,0.35,1.1,7,3.585,1
7,43,3663,1,1.55,0.65,7,3.663,1
7,44,2049,1,1.1,1.1,7,2.049,1
7,45,4382,1,2.45,1.1,7,4.382,1
7,46,2886,-1,1.1,1.1,7,2.886,1
7,47,3060,-1,1.1,2,7,3.06,1
7,48,2653,-1,0.95,0.95,7,2.653,1
7,49,4411,-1,1.1,0.95,7,4.411,0
7,50,3190,1,1.1,1.25,7,3.19,0
7,51,2469,-1,1.4,0.95,7,2.469,0
7,52,2123,-1,1.1,2.3,7,2.123,1
7,53,2445,-1,1.1,0.95,7,2.445,0
7,54,1773,1,0.5,0.35,7,1.773,1
7,55,3000,-1,0.5,1.25,7,3,1
7,56,2686,-1,1.1,1.85,7,2.686,1
7,57,2367,-1,1.4,2,7,2.367,1
7,58,1749,1,1.25,0.95,7,1.749,1
7,59,3833,1,2.45,2,7,3.833,1
7,60,4784,-1,1.55,1.4,7,4.784,0
7,61,1730,1,1.55,0.95,7,1.73,1
7,62,1077,-1,0.95,1.4,7,1.077,1
7,63,3814,-1,1.1,1.55,7,3.814,1
7,64,3089,1,2,1.1,7,3.089,1
7,65,1654,1,1.25,2,7,1.654,0
7,66,2117,-1,1.1,1.1,7,2.117,1
7,67,2244,-1,0.35,2,7,2.244,1
7,68,3364,1,1.4,0.65,7,3.364,1
7,69,1949,1,0.95,1.1,7,1.949,0
7,70,2978,-1,1.1,1.1,7,2.978,1
7,71,1889,1,0.95,0.5,7,1.889,1
7,72,2417,-1,0.65,1.1,7,2.417,1
7,73,1857,1,1.1,0.95,7,1.857,1
7,74,1438,1,1.1,0.95,7,1.438,1
7,75,5863,1,0.95,2,7,5.863,0
7,76,1513,1,2,0.8,7,1.513,1
7,77,2101,1,0.95,0.65,7,2.101,1
7,78,2523,-1,1.1,2.45,7,2.523,1
7,79,2697,1,2,0.5,7,2.697,1
7,80,3219,-1,0.95,1.55,7,3.219,1
7,81,2174,-1,1.1,0.95,7,2.174,0
7,82,2025,-1,0.95,1.1,7,2.025,1
7,83,1955,-1,0.8,2,7,1.955,1
7,84,2076,1,2.45,0.5,7,2.076,1
7,85,1642,1,1.1,1.55,7,1.642,0
7,86,2148,1,1.85,1.1,7,2.148,1
7,87,2053,1,1.4,1.55,7,2.053,0
7,88,1541,1,2.3,0.95,7,1.541,1
7,89,2534,-1,2,2.45,7,2.534,1
7,90,1899,-1,1.1,1.1,7,1.899,1
7,91,2392,-1,0.65,1.4,7,2.392,1
7,92,3847,1,1.1,0.95,7,3.847,1
7,93,2619,-1,0.65,1.55,7,2.619,1
7,94,4180,1,1.55,1.1,7,4.18,1
7,95,1936,1,1.85,1.55,7,1.936,1
7,96,4482,1,1.1,0.8,7,4.482,1
7,97,1610,1,2.3,1.1,7,1.61,1
7,98,2171,-1,1.1,2,7,2.171,1
7,99,1962,-1,0.95,0.95,7,1.962,1
7,100,2607,1,0.95,0.5,7,2.607,1
7,101,2582,-1,0.95,1.1,7,2.582,1
7,102,2051,-1,2,0.95,7,2.051,0
7,103,1908,1,0.95,1.1,7,1.908,0
7,104,1922,1,1.1,1.1,7,1.922,1
7,105,2140,-1,1.55,0.95,7,2.14,0
7,106,3448,1,1.1,0.35,7,3.448,1
7,107,2372,1,0.95,1.1,7,2.372,0
7,108,2207,-1,1.1,1.1,7,2.207,1
7,109,2572,-1,2,1.25,7,2.572,0
7,110,1473,-1,1.1,1.1,7,1.473,1
7,111,4593,-1,0.5,2,7,4.593,1
7,112,1610,-1,1.1,1.4,7,1.61,1
7,113,3948,1,1.1,0.95,7,3.948,1
7,114,3397,1,1.1,1.1,7,3.397,1
7,115,2886,-1,0.65,0.95,7,2.886,1
7,116,2366,-1,1.25,2,7,2.366,1
7,117,1895,-1,1.25,1.1,7,1.895,0
7,118,5131,-1,1.1,2.45,7,5.131,1
7,119,3043,1,2.45,1.1,7,3.043,1
8,0,2507,-1,1.7,2.15,8,2.507,1
8,1,2134,-1,2,1.1,8,2.134,0
8,2,3104,1,2,2.15,8,3.104,0
8,3,2115,-1,0.95,2.45,8,2.115,1
8,4,2664,-1,1.85,2.45,8,2.664,1
8,5,3493,-1,1.1,0.95,8,3.493,0
8,6,2265,-1,1.85,1.25,8,2.265,0
8,7,1639,1,2.6,2.6,8,1.639,1
8,8,1956,1,1.25,1.25,8,1.956,1
8,9,3777,-1,1.1,1.85,8,3.777,1
8,10,2185,1,1.7,1.85,8,2.185,0
8,11,1818,1,2.3,0.8,8,1.818,1
8,12,2958,1,2,1.4,8,2.958,1
8,13,3672,1,1.85,1.4,8,3.672,1
8,14,3957,1,2,0.95,8,3.957,1
8,15,1934,-1,0.8,0.95,8,1.934,1
8,16,2024,1,1.25,2.75,8,2.024,0
8,17,5394,1,1.7,1.7,8,5.394,1
8,18,2211,-1,2,2.3,8,2.211,1
8,19,6702,-1,0.8,0.95,8,6.702,1
8,20,1694,1,2.3,2,8,1.694,1
8,21,2585,1,1.25,1.1,8,2.585,1
8,22,2005,-1,1.25,2,8,2.005,1
8,23,2527,-1,2.15,1.4,8,2.527,0
8,24,2909,1,0.95,1.7,8,2.909,0
8,25,6158,1,2,2.75,8,6.158,0
8,26,5470,-1,0.95,1.7,8,5.47,1
8,27,3018,1,0.8,2,8,3.018,0
8,28,2168,-1,2.15,1.25,8,2.168,0
8,29,1622,-1,1.25,1.85,8,1.622,1
8,30,2725,-1,2,2.15,8,2.725,1
8,31,3982,1,0.95,1.4,8,3.982,0
8,32,2130,-1,2.15,0.95,8,2.13,0
8,33,6062,1,1.85,2.3,8,6.062,0
8,34,2597,-1,2.6,0.8,8,2.597,0
8,35,3046,1,2.15,1.85,8,3.046,1
8,36,2818,1,2,2.15,8,2.818,0
8,37,4829,-1,1.25,2.45,8,4.829,1
8,38,2374,-1,0.8,2.3,8,2.374,1
8,39,10790,1,1.25,1.4,8,10.79,0
8,40,2493,-1,2.45,0.95,8,2.493,0
8,41,3783,-1,2.15,2,8,3.783,0
8,42,2532,1,2,1.25,8,2.532,1
8,43,3582,1,1.85,2.15,8,3.582,0
8,44,1617,-1,1.4,1.4,8,1.617,1
8,45,2199,-1,2.45,1.25,8,2.199,0
8,46,4617,-1,1.85,2.15,8,4.617,1
8,47,1591,1,2.15,1.7,8,1.591,1
8,48,1837,1,0.95,2.15,8,1.837,0
8,49,3655,-1,2,1.85,8,3.655,0
8,50,2680,-1,0.8,2.3,8,2.68,1
8,51,2675,1,0.95,2,8,2.675,0
8,52,1895,1,2.45,1.85,8,1.895,1
8,53,3099,-1,2,1.7,8,3.099,0
8,54,5649,-1,1.25,1.25,8,5.649,1
8,55,1249,1,2.3,0.8,8,1.249,1
8,56,1810,-1,2.6,2.6,8,1.81,1
8,57,2423,-1,2.45,1.85,8,2.423,0
8,58,1467,1,2.3,2,8,1.467,1
8,59,1796,1,1.25,0.8,8,1.796,1
8,60,2933,1,0.95,1.1,8,2.933,0
8,61,1836,1,1.4,2,8,1.836,0
8,62,5354,1,1.25,2.3,8,5.354,0
8,63,3919,1,2,2.3,8,3.919,0
8,64,1549,-1,1.4,1.85,8,1.549,1
8,65,3875,1,2.3,1.7,8,3.875,1
8,66,2389,-1,1.4,0.95,8,2.389,0
8,67,2133,-1,0.95,2,8,2.133,1
8,68,2735,-1,1.25,1.25,8,2.735,1
8,69,1089,-1,2.15,0.95,8,1.089,0
8,70,1859,1,0.8,2.6,8,1.859,0
8,71,2137,1,0.95,0.8,8,2.137,1
8,72,1893,1,0.95,1.25,8,1.893,0
8,73,2049,-1,0.8,0.8,8,2.049,1
8,74,1959,1,1.25,1.85,8,1.959,0
8,75,2156,-1,0.95,2.6,8,2.156,1
8,76,3751,-1,2,2.45,8,3.751,1
8,77,3011,1,0.95,0.8,8,3.011,1
8,78,3907,1,2,1.4,8,3.907,1
8,79,3688,1,1.85,0.8,8,3.688,1
8,80,2351,-1,2.3,1.85,8,2.351,0
8,81,1648,1,0.8,0.8,8,1.648,1
8,82,1913,1,2.45,0.95,8,1.913,1
8,83,1880,-1,1.7,0.95,8,1.88,0
8,84,8454,1,1.4,2,8,8.454,0
8,85,1583,1,1.1,2,8,1.583,0
8,86,3631,1,2.45,2,8,3.631,1
8,87,2197,-1,2,0.95,8,2.197,0
8,88,2222,-1,1.25,2,8,2.222,1
8,89,1789,1,0.95,2.45,8,1.789,0
8,90,3738,-1,0.8,1.85,8,3.738,1
8,91,2183,1,2.6,0.95,8,2.183,1
8,92,2075,-1,1.25,0.95,8,2.075,0
8,93,1883,-1,2,2.3,8,1.883,1
8,94,1403,1,1.85,1.25,8,1.403,1
8,95,2909,-1,0.95,2.15,8,2.909,1
8,96,1189,-1,2.15,2,8,1.189,0
8,97,1220,1,1.25,1.25,8,1.22,1
8,98,1507,1,1.25,2.15,8,1.507,0
8,99,1428,1,1.85,2,8,1.428,0
8,100,1689,1,1.7,2,8,1.689,0
8,101,2218,-1,1.7,2.3,8,2.218,1
8,102,4202,1,1.85,1.1,8,4.202,1
8,103,2067,-1,1.85,1.7,8,2.067,0
8,104,7225,-1,2.3,2,8,7.225,0
8,105,2522,-1,2.3,1.25,8,2.522,0
8,106,2408,-1,0.8,1.25,8,2.408,1
8,107,1628,1,1.4,1.4,8,1.628,1
8,108,2775,-1,1.1,1.25,8,2.775,1
8,109,2350,-1,2.75,2,8,2.35,0
8,110,1686,1,1.7,0.95,8,1.686,1
8,111,3420,-1,2.15,1.85,8,3.42,0
8,112,6061,-1,1.85,2.45,8,6.061,1
8,113,2435,-1,1.7,1.7,8,2.435,1
8,114,3465,1,1.4,2.15,8,3.465,0
8,115,2452,-1,2.75,1.25,8,2.452,0
8,116,1619,1,2,1.25,8,1.619,1
8,117,4774,-1,2,0.8,8,4.774,0
8,118,4797,1,1.4,1.25,8,4.797,1
8,119,2442,1,2.15,2,8,2.442,1
9,0,3814,1,1.1,0.5,9,3.814,1
9,1,3772,-1,0.5,0.35,9,3.772,0
9,2,2437,1,0.65,0.5,9,2.437,1
9,3,4887,-1,0.5,0.35,9,4.887,0
9,4,2871,1,0.95,0.65,9,2.871,1
9,5,3340,1,0.35,0.2,9,3.34,1
9,6,2786,-1,0.35,0.65,9,2.786,1
9,7,2839,-1,0.8,1.4,9,2.839,1
9,8,1985,-1,0.5,1.55,9,1.985,1
9,9,2034,-1,0.65,0.95,9,2.034,1
9,10,2185,-1,0.65,1.25,9,2.185,1
9,11,5349,-1,0.5,0.65,9,5.349,1
9,12,2601,-1,0.65,1.1,9,2.601,1
9,13,3060,-1,1.1,1.55,9,3.06,1
9,14,3909,1,1.4,0.65,9,3.909,1
9,15,3604,1,1.4,0.65,9,3.604,1
9,16,3990,1,0.65,0.8,9,3.99,0
9,17,2063,1,1.1,0.5,9,2.063,1
9,18,5749,-1,0.65,0.8,9,5.749,1
9,19,2127,1,0.8,0.65,9,2.127,1
9,20,1975,1,0.8,0.5,9,1.975,1
9,21,5517,1,1.55,1.1,9,5.517,1
9,22,1876,1,1.25,0.95,9,1.876,1
9,23,1907,-1,0.2,0.8,9,1.907,1
9,24,1914,1,0.95,0.35,9,1.914,1
9,25,1945,-1,1.4,1.55,9,1.945,1
9,26,1899,1,0.8,0.35,9,1.899,1
9,27,2048,-1,0.8,1.4,9,2.048,1
9,28,1536,-1,0.05,0.8,9,1.536,1
9,29,1781,1,1.55,0.35,9,1.781,1
9,30,1413,1,0.65,0.5,9,1.413,1
9,31,2923,-1,0.5,0.95,9,2.923,1
9,32,6754,1,0.95,0.8,9,6.754,1
9,33,1704,-1,0.35,0.5,9,1.704,1
9,34,5374,1,1.4,0.8,9,5.374,1
9,35,5338,1,1.55,0.8,9,5.338,1
9,36,5539,-1,0.8,0.8,9,5.539,1
9,37,1817,-1,0.35,0.8,9,1.817,1
9,38,2192,-1,0.5,0.65,9,2.192,1
9,39,2392,-1,0.65,0.65,9,2.392,1
9,40,3952,1,1.1,1.55,9,3.952,0
9,41,1624,-1,0.95,0.8,9,1.624,0
9,42,1675,-1,0.95,0.65,9,1.675,0
9,43,1420,1,0.35,1.55,9,1.42,0
9,44,2088,-1,0.65,0.35,9,2.088,0
9,45,1738,-1,0.8,0.2,9,1.738,0
9,46,2548,-1,1.55,1.55,9,2.548,1
9,47,3065,-1,1.1,0.95,9,3.065,0
9,48,1321,1,0.65,0.8,9,1.321,0
9,49,1476,1,0.35,1.55,9,1.476,0
9,50,1372,1,0.5,0.65,9,1.372,0
9,51,2000,-1,1.25,0.65,9,2,0
9,52,1298,-1,0.65,0.2,9,1.298,0
9,53,1903,-1,1.4,0.8,9,1.903,0
9,54,1905,1,0.35,1.4,9,1.905,0
9,55,1804,1,0.8,0.95,9,1.804,0
9,56,1796,-1,0.8,0.5,9,1.796,0
9,57,1958,1,0.35,0.8,9,1.958,0
9,58,1995,-1,0.65,0.65,9,1.995,1
9,59,1938,-1,0.35,0.5,9,1.938,1
9,60,1798,1,0.5,1.1,9,1.798,0
9,61,1395,1,0.05,0.35,9,1.395,0
9,62,1415,1,0.2,1.55,9,1.415,0
9,63,2794,1,0.8,1.4,9,2.794,0
9,64,677,-1,0.5,0.65,9,0.677,1
9,65,2103,1,0.65,1.4,9,2.103,0
9,66,1777,-1,0.8,0.5,9,1.777,0
9,67,6047,-1,0.65,0.5,9,6.047,0
9,68,2316,1,0.65,0.95,9,2.316,0
9,69,2108,-1,1.1,0.8,9,2.108,0
9,70,2569,-1,1.1,0.65,9,2.569,0
9,71,2056,-1,0.8,0.65,9,2.056,0
9,72,1548,1,0.95,1.25,9,1.548,0
9,73,1501,1,0.2,0.35,9,1.501,0
9,74,1038,-1,0.8,0.35,9,1.038,0
9,75,1620,1,0.65,1.4,9,1.62,0
9,76,2522,-1,0.65,0.65,9,2.522,1
9,77,1519,-1,0.8,0.05,9,1.519,0
9,78,4272,1,0.8,0.95,9,4.272,0
9,79,1132,-1,1.55,0.65,9,1.132,0
9,80,2341,1,1.55,1.4,9,2.341,1
9,81,1387,1,1.55,0.2,9,1.387,1
9,82,3092,-1,0.35,0.95,9,3.092,1
9,83,2529,-1,0.65,0.65,9,2.529,1
9,84,1431,-1,0.2,0.65,9,1.431,1
9,85,1272,1,0.5,0.35,9,1.272,1
9,86,1545,1,1.55,0.35,9,1.545,1
9,87,2115,-1,0.8,1.55,9,2.115,1
9,88,1489,1,1.4,0.35,9,1.489,1
9,89,2337,-1,0.5,1.1,9,2.337,1
9,90,5734,1,0.35,0.65,9,5.734,0
9,91,1360,1,0.65,0.5,9,1.36,1
9,92,1586,1,0.95,0.5,9,1.586,1
9,93,1674,-1,0.5,0.8,9,1.674,1
9,94,1752,-1,0.35,1.55,9,1.752,1
9,95,1820,-1,0.65,1.55,9,1.82,1
9,96,1977,1,0.35,0.05,9,1.977,1
9,97,1517,1,0.95,0.8,9,1.517,1
9,98,1998,-1,1.55,1.55,9,1.998,1
9,99,2126,-1,0.5,0.8,9,2.126,1
9,100,1709,-1,0.65,1.4,9,1.709,1
9,101,2013,-1,0.8,0.95,9,2.013,1
9,102,2873,1,0.65,0.5,9,2.873,1
9,103,5345,-1,0.35,0.5,9,5.345,1
9,104,1652,1,1.4,0.8,9,1.652,1
9,105,1959,-1,0.5,0.8,9,1.959,1
9,106,1481,-1,0.8,1.1,9,1.481,1
9,107,1497,1,1.55,0.35,9,1.497,1
9,108,2102,1,0.95,0.65,9,2.102,1
9,109,1171,1,1.55,0.5,9,1.171,1
9,110,1670,-1,0.5,1.1,9,1.67,1
9,111,1854,-1,0.8,0.65,9,1.854,0
9,112,1275,1,1.1,0.5,9,1.275,1
9,113,3400,1,1.4,0.65,9,3.4,1
9,114,6826,1,1.55,1.1,9,6.826,1
9,115,3907,-1,0.95,1.1,9,3.907,1
9,116,1393,1,0.65,0.35,9,1.393,1
9,117,3952,1,0.8,0.8,9,3.952,1
9,118,1515,-1,0.65,0.95,9,1.515,1
9,119,1843,-1,0.5,0.65,9,1.843,1
10,0,2956,-1,0.35,0.95,10,2.956,1
10,1,2454,1,2.15,1.25,10,2.454,1
10,2,3689,1,1.4,0.5,10,3.689,1
10,3,3204,-1,1.7,1.55,10,3.204,0
10,4,2595,-1,2.75,2.3,10,2.595,0
10,5,2382,1,1.85,0.65,10,2.382,1
10,6,3263,-1,1.7,1.7,10,3.263,1
10,7,2722,1,1.4,2.75,10,2.722,0
10,8,4175,1,2,0.5,10,4.175,1
10,9,5743,1,0.5,0.05,10,5.743,1
10,10,3413,1,1.7,2.45,10,3.413,0
10,11,2708,1,0.95,0.8,10,2.708,1
10,12,3229,-1,0.2,2.45,10,3.229,1
10,13,2054,1,1.55,0.65,10,2.054,1
10,14,2506,1,1.4,1.1,10,2.506,1
10,15,4890,1,1.7,0.95,10,4.89,1
10,16,3795,-1,1.7,1.7,10,3.795,1
10,17,2899,-1,1.55,1.1,10,2.899,0
10,18,3657,-1,2.15,2.45,10,3.657,1
10,19,2598,1,2,1.55,10,2.598,1
10,20,6073,-1,1.55,0.5,10,6.073,0
10,21,5231,-1,0.95,2.45,10,5.231,1
10,22,2200,1,1.85,2,10,2.2,0
10,23,4621,1,0.8,2,10,4.621,0
10,24,1960,-1,1.7,2.15,10,1.96,1
10,25,7929,1,2.15,2,10,7.929,1
10,26,2436,-1,1.4,2.45,10,2.436,1
10,27,2712,-1,0.05,2,10,2.712,1
10,28,4729,-1,2.15,1.7,10,4.729,0
10,29,5774,1,0.95,0.8,10,5.774,1
10,30,2578,-1,1.55,1.85,10,2.578,1
10,31,3228,-1,1.25,1.7,10,3.228,1
10,32,2676,-1,1.85,0.95,10,2.676,0
10,33,5374,-1,2.45,2,10,5.374,0
10,34,2111,-1,0.5,1.7,10,2.111,1
10,35,4374,-1,1.85,2.45,10,4.374,1
10,36,2281,1,2.15,1.7,10,2.281,1
10,37,2216,-1,2,1.1,10,2.216,0
10,38,3987,1,0.5,2.15,10,3.987,0
10,39,938,-1,2.3,1.55,10,0.938,0
10,40,3506,-1,0.5,1.85,10,3.506,1
10,41,3359,1,1.7,1.25,10,3.359,1
10,42,1600,1,2,2,10,1.6,1
10,43,1479,-1,0.65,1.55,10,1.479,1
10,44,2993,-1,1.7,1.85,10,2.993,1
10,45,1505,-1,2.45,0.2,10,1.505,0
10,46,1567,1,0.35,2.45,10,1.567,0
10,47,3992,1,2.15,0.95,10,3.992,1
10,48,2794,-1,0.8,2,10,2.794,1
10,49,1367,-1,0.05,0.5,10,1.367,1
10,50,2336,-1,2,2.15,10,2.336,1
10,51,1558,1,1.7,1.7,10,1.558,1
10,52,1423,-1,1.7,2.15,10,1.423,1
10,53,4600,1,1.7,2,10,4.6,0
10,54,2577,-1,1.4,2,10,2.577,1
10,55,1729,1,2,0.05,10,1.729,1
10,56,2359,-1,2.15,0.5,10,2.359,0
10,57,4380,-1,1.7,1.25,10,4.38,0
10,58,3733,-1,0.95,1.7,10,3.733,1
10,59,2880,-1,1.25,0.35,10,2.88,0
10,60,1793,1,2.45,1.85,10,1.793,1
10,61,4008,-1,0.95,1.1,10,4.008,1
10,62,2158,-1,1.1,1.7,10,2.158,1
10,63,1844,1,1.55,2,10,1.844,0
10,64,2946,1,2.45,0.95,10,2.946,1
10,65,5357,1,2.15,1.7,10,5.357,1
10,66,2331,1,1.1,2,10,2.331,0
10,67,2172,-1,0.2,1.4,10,2.172,1
10,68,3082,1,2.45,1.85,10,3.082,1
10,69,3827,1,2.3,0.35,10,3.827,1
10,70,4098,1,2,2.3,10,4.098,0
10,71,2352,1,1.25,1.7,10,2.352,0
10,72,3917,-1,0.5,1.55,10,3.917,1
10,73,3000,1,0.5,1.4,10,3,0
10,74,1635,1,2.45,1.4,10,1.635,1
10,75,1775,-1,1.1,2.45,10,1.775,1
10,76,2295,1,1.7,0.5,10,2.295,1
10,77,3827,1,2.45,1.7,10,3.827,1
10,78,2962,1,1.1,1.55,10,2.962,0
10,79,1977,-1,1.55,1.25,10,1.977,0
10,80,3624,-1,1.85,0.5,10,3.624,0
10,81,2872,1,2.3,2.75,10,2.872,0
10,82,1663,1,2,0.8,10,1.663,1
10,83,2138,1,2.45,0.35,10,2.138,1
10,84,3166,1,2,0.8,10,3.166,1
10,85,2659,-1,1.25,1.7,10,2.659,1
10,86,1862,1,2,1.7,10,1.862,1
10,87,2777,1,0.95,0.35,10,2.777,1
10,88,4617,1,2.45,2.15,10,4.617,1
10,89,3374,-1,1.85,1.7,10,3.374,0
10,90,2568,-1,1.1,1.4,10,2.568,1
10,91,2761,1,1.4,0.2,10,2.761,1
10,92,3259,1,1.7,2.15,10,3.259,0
10,93,2754,-1,2,1.85,10,2.754,0
10,94,2407,-1,0.5,1.7,10,2.407,1
10,95,4312,1,1.1,0.95,10,4.312,1
10,96,3624,-1,1.25,2.15,10,3.624,1
10,97,3939,-1,0.35,1.25,10,3.939,1
10,98,2407,1,0.8,0.95,10,2.407,0
10,99,1780,-1,0.35,2.3,10,1.78,1
10,100,2525,-1,2,2,10,2.525,1
10,101,1833,-1,1.55,2.3,10,1.833,1
10,102,3869,-1,2.3,2,10,3.869,0
10,103,1386,-1,0.65,1.85,10,1.386,1
10,104,2312,1,1.85,2.45,10,2.312,0
10,105,2880,1,2.45,1.1,10,2.88,1
10,106,2177,1,1.25,1.55,10,2.177,0
10,107,3649,1,1.55,1.7,10,3.649,0
10,108,1952,1,2,1.4,10,1.952,1
10,109,3193,1,0.95,2.15,10,3.193,0
10,110,2475,-1,0.5,2,10,2.475,1
10,111,2149,1,1.7,1.7,10,2.149,1
10,112,1594,-1,0.8,0.95,10,1.594,1
10,113,2011,1,0.95,1.85,10,2.011,0
10,114,1903,1,1.7,0.5,10,1.903,1
10,115,2093,-1,1.7,1.25,10,2.093,0
10,116,1776,1,1.85,1.55,10,1.776,1
10,117,2006,1,2,2.45,10,2.006,0
10,118,3972,1,1.7,1.1,10,3.972,1
10,119,2425,-1,2.75,1.4,10,2.425,0
11,0,1693,-1,0.8,1.1,11,1.693,1
11,1,3529,-1,1.55,2.15,11,3.529,1
11,2,3619,1,1.1,1.1,11,3.619,1
11,3,4619,-1,1.55,1.1,11,4.619,0
11,4,2557,-1,0.95,0.8,11,2.557,0
11,5,2870,1,1.55,0.95,11,2.87,1
11,6,2978,1,0.9,1.25,11,2.978,0
11,7,4036,1,0.95,0.8,11,4.036,1
11,8,2904,1,0.95,0.5,11,2.904,1
11,9,4174,-1,1.4,2,11,4.174,1
11,10,3539,1,1.85,1.1,11,3.539,1
11,11,1795,1,1.1,1.25,11,1.795,0
11,12,5726,-1,2.6,2.75,11,5.726,1
11,13,5765,-1,0.95,1.1,11,5.765,1
11,14,1930,-1,0.8,2.75,11,1.93,1
11,15,3574,1,2.6,1.1,11,3.574,1
11,16,2206,1,1.55,1.25,11,2.206,1
11,17,1649,1,0.95,1.4,11,1.649,0
11,18,5114,-1,1.1,0.95,11,5.114,0
11,19,2477,-1,0.95,1.1,11,2.477,1
11,20,1941,-1,0.8,0.8,11,1.941,1
11,21,2183,1,0.8,0.5,11,2.183,1
11,22,2862,-1,0.8,0.5,11,2.862,0
11,23,3906,-1,0.9,0.95,11,3.906,1
11,24,2611,-1,0.65,1.1,11,2.611,1
11,25,3938,-1,0.8,1.85,11,3.938,1
11,26,1922,-1,0.35,1.55,11,1.922,1
11,27,2064,-1,0.5,0.8,11,2.064,1
11,28,1826,1,0.95,0.5,11,1.826,1
11,29,1756,1,1.1,0.5,11,1.756,1
11,30,3119,1,2,0.8,11,3.119,1
11,31,1499,1,0.65,0.35,11,1.499,1
11,32,2139,1,1.1,0.5,11,2.139,1
11,33,4705,-1,0.95,2.6,11,4.705,1
11,34,8860,1,1.55,0.65,11,8.86,1
11,35,4205,1,0.65,0.8,11,4.205,0
11,36,2712,1,2,0.95,11,2.712,1
11,37,2958,1,0.8,0.8,11,2.958,1
11,38,2525,-1,0.95,2.6,11,2.525,1
11,39,1843,1,2.15,0.8,11,1.843,1
11,40,3632,-1,1.1,2.6,11,3.632,1
11,41,6941,1,1.1,0.8,11,6.941,1
11,42,2011,1,0.95,0.5,11,2.011,1
11,43,1769,1,0.8,0.35,11,1.769,1
11,44,2308,-1,0.65,1.55,11,2.308,1
11,45,3892,1,0.95,1.1,11,3.892,0
11,46,2113,1,1.7,0.8,11,2.113,1
11,47,2016,-1,0.8,2.15,11,2.016,1
11,48,4951,-1,1.85,2,11,4.951,1
11,49,1684,-1,1.25,1.55,11,1.684,1
11,50,2001,-1,0.8,2,11,2.001,1
11,51,1248,-1,0.8,0.65,11,1.248,0
11,52,5374,-1,1.1,2.15,11,5.374,1
11,53,1743,-1,0.5,1.1,11,1.743,1
11,54,1945,1,1.1,0.65,11,1.945,1
11,55,1487,-1,0.35,0.65,11,1.487,1
11,56,2217,-1,0.95,0.95,11,2.217,1
11,57,4695,-1,1.55,2,11,4.695,1
11,58,2110,1,2.15,0.95,11,2.11,1
11,59,2154,-1,0.8,0.95,11,2.154,1
11,60,1943,1,1.55,0.5,11,1.943,1
11,61,2061,-1,0.5,0.8,11,2.061,1
11,62,1499,1,1.55,0.35,11,1.499,1
11,63,2608,-1,0.95,0.95,11,2.608,1
11,64,1623,1,0.95,0.9,11,1.623,1
11,65,2166,-1,0.95,2,11,2.166,1
11,66,1357,-1,0.5,0.95,11,1.357,1
11,67,1993,1,0.8,0.5,11,1.993,1
11,68,4362,1,1.1,0.8,11,4.362,1
11,69,5219,1,1.1,1.55,11,5.219,0
11,70,3413,-1,1.25,0.95,11,3.413,0
11,71,1948,-1,0.35,2.6,11,1.948,1
11,72,2161,-1,1.1,2.6,11,2.161,1
11,73,3073,1,0.5,1.85,11,3.073,0
11,74,1729,-1,1.1,1.85,11,1.729,1
11,75,1759,-1,0.95,1.7,11,1.759,1
11,76,1803,1,2,0.8,11,1.803,1
11,77,1900,1,2.15,1.55,11,1.9,1
11,78,3305,1,0.8,1.1,11,3.305,0
11,79,1989,1,1.1,0.8,11,1.989,1
11,80,2344,1,1.7,0.95,11,2.344,1
11,81,1725,1,0.95,0.8,11,1.725,1
11,82,1856,-1,0.95,2.15,11,1.856,1
11,83,3411,-1,2.15,1.1,11,3.411,0
11,84,2067,1,0.95,1.25,11,2.067,0
11,85,2129,-1,1.1,1.1,11,2.129,1
11,86,1049,-1,0.5,1.55,11,1.049,1
11,87,2041,1,1.1,0.95,11,2.041,1
11,88,1292,-1,1.4,0.95,11,1.292,0
11,89,2487,-1,2,1.85,11,2.487,0
11,90,1552,-1,1.1,0.8,11,1.552,0
11,91,1845,-1,0.8,1.1,11,1.845,1
11,92,3187,1,1.25,1.1,11,3.187,1
11,93,3557,-1,0.8,2,11,3.557,1
11,94,2602,-1,0.8,0.95,11,2.602,1
11,95,1066,-1,0.8,1.1,11,1.066,1
11,96,1805,1,0.5,0.8,11,1.805,0
11,97,3007,-1,2.75,0.8,11,3.007,0
11,98,2244,-1,2.75,2.6,11,2.244,0
11,99,1962,1,2.6,0.35,11,1.962,1
11,100,2514,-1,0.8,0.95,11,2.514,1
11,101,2807,1,0.95,0.95,11,2.807,1
11,102,1584,-1,0.35,0.8,11,1.584,1
11,103,2683,1,2.6,1.1,11,2.683,1
11,104,2122,1,0.5,1.1,11,2.122,0
11,105,2227,-1,2.6,0.95,11,2.227,0
11,106,2900,-1,0.95,1.55,11,2.9,1
11,107,2616,1,2,1.4,11,2.616,1
11,108,2494,-1,0.8,0.8,11,2.494,1
11,109,1692,1,2.6,0.95,11,1.692,1
11,110,3233,-1,1.85,0.5,11,3.233,0
11,111,2537,1,1.85,0.8,11,2.537,1
11,112,2545,-1,0.8,0.8,11,2.545,1
11,113,1535,-1,0.5,0.95,11,1.535,1
11,114,2267,1,1.1,0.95,11,2.267,1
11,115,1963,-1,0.8,1.7,11,1.963,1
11,116,1907,1,0.95,0.95,11,1.907,1
11,117,1731,1,2,1.55,11,1.731,1
11,118,3364,-1,1.25,0.9,11,3.364,0
11,119,2139,-1,0.5,0.95,11,2.139,1
12,0,5231,-1,1.1,2.3,12,5.231,1
12,1,4462,-1,0.95,1.25,12,4.462,1
12,2,3251,-1,1.1,1.1,12,3.251,1
12,3,2989,1,0.95,0.95,12,2.989,1
12,4,1436,-1,1.55,1.55,12,1.436,1
12,5,2317,-1,1.4,0.95,12,2.317,0
12,6,4848,-1,1.1,1.1,12,4.848,1
12,7,3389,1,1.1,0.5,12,3.389,1
12,8,3074,-1,0.8,0.95,12,3.074,1
12,9,3791,1,1.55,0.95,12,3.791,1
12,10,3028,-1,0.95,0.8,12,3.028,0
12,11,3044,-1,0.65,1.1,12,3.044,1
12,12,2738,-1,2,0.95,12,2.738,0
12,13,1892,1,0.95,1.4,12,1.892,0
12,14,1817,1,0.8,1.55,12,1.817,0
12,15,1916,1,1.1,0.65,12,1.916,1
12,16,1676,-1,1.55,0.8,12,1.676,0
12,17,2460,1,3,1.55,12,2.46,1
12,18,2758,1,1.1,1.55,12,2.758,0
12,19,1924,-1,0.5,0.95,12,1.924,1
12,20,3399,1,1.55,1.25,12,3.399,1
12,21,2055,1,0.95,1.1,12,2.055,0
12,22,2383,-1,1.1,0.95,12,2.383,0
12,23,2015,1,1.1,0.8,12,2.015,1
12,24,3407,1,0.95,0.95,12,3.407,1
12,25,2199,1,1.25,0.95,12,2.199,1
12,26,3073,-1,1.25,1.25,12,3.073,1
12,27,2721,-1,0.95,3,12,2.721,1
12,28,2562,-1,1.1,2,12,2.562,1
12,29,2099,-1,1.25,1.1,12,2.099,0
12,30,2332,1,1.1,0.95,12,2.332,1
12,31,3103,-1,1.4,1.1,12,3.103,0
12,32,3074,1,2,1.1,12,3.074,1
12,33,3804,-1,1.4,2,12,3.804,1
12,34,1685,-1,0.95,1.1,12,1.685,1
12,35,747,-1,1.1,1.4,12,0.747,1
12,36,4899,-1,1.25,0.8,12,4.899,0
12,37,3078,-1,0.95,1.1,12,3.078,1
12,38,4006,1,1.1,1.1,12,4.006,1
12,39,4284,-1,1.25,1.1,12,4.284,0
12,40,4664,1,0.95,1.1,12,4.664,0
12,41,2502,1,1.1,0.95,12,2.502,1
12,42,4981,-1,1.1,2,12,4.981,1
12,43,1723,1,0.8,1.1,12,1.723,0
12,44,2724,-1,0.95,0.8,12,2.724,0
12,45,2253,1,1.4,1.25,12,2.253,1
12,46,1817,-1,1.1,1.4,12,1.817,1
12,47,1894,1,2,2.3,12,1.894,0
12,48,2026,1,1.1,1.1,12,2.026,1
12,49,5165,1,1.1,1.1,12,5.165,1
12,50,4468,-1,1.25,1.1,12,4.468,0
12,51,2687,-1,1.4,1.1,12,2.687,0
12,52,1845,1,0.5,1.1,12,1.845,0
12,53,5522,1,0.95,0.95,12,5.522,1
12,54,4278,-1,1.1,1.1,12,4.278,1
12,55,2623,-1,0.95,1.1,12,2.623,1
12,56,2588,1,2,0.8,12,2.588,1
12,57,2581,1,1.1,1.1,12,2.581,1
12,58,1601,-1,1.55,1.55,12,1.601,1
12,59,2664,-1,1.25,1.1,12,2.664,0
12,60,3320,1,1.1,1.25,12,3.32,0
12,61,2356,1,2,1.1,12,2.356,1
12,62,3163,-1,1.25,0.95,12,3.163,0
12,63,2523,-1,1.55,0.8,12,2.523,0
12,64,1712,-1,0.95,1.4,12,1.712,1
12,65,3851,-1,1.4,0.8,12,3.851,0
12,66,3017,-1,0.95,0.95,12,3.017,1
12,67,11705,-1,1.1,1.1,12,11.705,1
12,68,1701,-1,0.65,1.1,12,1.701,1
12,69,4700,-1,0.8,1.55,12,4.7,1
12,70,2951,1,1.1,0.95,12,2.951,1
12,71,3977,-1,1.25,1.55,12,3.977,1
12,72,4255,1,0.95,1.85,12,4.255,0
12,73,2853,1,1.85,1.1,12,2.853,1
12,74,3495,1,0.95,1.25,12,3.495,0
12,75,2910,1,2.3,1.1,12,2.91,1
12,76,2451,1,1.1,1.25,12,2.451,0
12,77,1703,1,0.95,1.1,12,1.703,0
12,78,1608,1,0.8,1.25,12,1.608,0
12,79,1497,-1,1.1,0.8,12,1.497,0
12,80,3094,-1,1.1,0.95,12,3.094,0
12,81,3902,-1,1.1,1.1,12,3.902,1
12,82,1409,-1,1.4,0.95,12,1.409,0
12,83,1559,1,0.95,1.55,12,1.559,0
12,84,1477,-1,1.1,1.85,12,1.477,1
12,85,3069,1,1.25,0.95,12,3.069,1
12,86,2134,1,1.1,1.25,12,2.134,0
12,87,2817,-1,1.1,2,12,2.817,1
12,88,2134,1,1.25,1.25,12,2.134,1
12,89,1617,1,0.95,0.5,12,1.617,1
12,90,1461,-1,2,1.1,12,1.461,0
12,91,2339,1,1.4,0.95,12,2.339,1
12,92,5991,-1,1.1,1.1,12,5.991,1
12,93,2199,1,1.1,0.8,12,2.199,1
12,94,2462,1,1.55,3,12,2.462,0
12,95,1067,-1,2.3,2,12,1.067,0
12,96,10287,-1,1.1,2,12,10.287,1
12,97,1925,1,0.8,0.95,12,1.925,0
12,98,1135,-1,2,1.1,12,1.135,0
12,99,3665,-1,1.1,0.95,12,3.665,0
12,100,3337,-1,0.8,1.1,12,3.337,1
12,101,1621,1,1.1,1.25,12,1.621,0
12,102,4467,-1,1.1,1.1,12,4.467,1
12,103,1513,-1,0.95,1.1,12,1.513,1
12,104,2373,1,1.25,1.4,12,2.373,0
12,105,1853,1,1.1,0.95,12,1.853,1
12,106,1472,1,0.95,1.4,12,1.472,0
12,107,6250,1,1.85,0.95,12,6.25,1
12,108,2147,1,1.55,1.1,12,2.147,1
12,109,2173,1,1.1,1.1,12,2.173,1
12,110,1871,-1,0.95,2,12,1.871,1
12,111,2146,-1,0.8,1.1,12,2.146,1
12,112,3778,-1,0.8,1.4,12,3.778,1
12,113,1974,1,3,0.95,12,1.974,1
12,114,1914,1,1.1,1.1,12,1.914,1
12,115,3997,1,1.1,0.65,12,3.997,1
12,116,1766,1,2,1.4,12,1.766,1
12,117,11609,-1,0.8,2,12,11.609,1
12,118,1188,-1,1.1,1.1,12,1.188,1
12,119,1682,1,0.95,1.25,12,1.682,0
13,0,2075,1,1.55,0.5,13,2.075,1
13,1,7535,1,1.55,0.95,13,7.535,1
13,2,4586,-1,1.25,1.55,13,4.586,1
13,3,8661,-1,1.7,2,13,8.661,1
13,4,3957,-1,0.65,1.7,13,3.957,1
13,5,9202,-1,0.45,1.4,13,9.202,1
13,6,2922,1,0.45,0.15,13,2.922,1
13,7,5625,1,1.4,0.8,13,5.625,1
13,8,4227,1,1.7,0.2,13,4.227,1
13,9,2575,-1,0.5,1.7,13,2.575,1
13,10,1625,-1,0,0.8,13,1.625,1
13,11,2323,1,0.65,0.5,13,2.323,1
13,12,2629,1,1.7,0.95,13,2.629,1
13,13,5584,-1,1.4,1.25,13,5.584,0
13,14,1722,-1,0.5,1.25,13,1.722,1
13,15,4294,-1,0.8,1.1,13,4.294,1
13,16,3248,1,1.4,0.65,13,3.248,1
13,17,16464,-1,1.85,1.55,13,16.464,0
13,18,2965,1,0.95,0.95,13,2.965,1
13,19,11012,-1,1.7,1.4,13,11.012,0
13,20,2685,1,0.65,0.35,13,2.685,1
13,21,2143,-1,0.35,1.4,13,2.143,1
13,22,3143,1,1.7,1.25,13,3.143,1
13,23,6030,-1,0.8,0.95,13,6.03,1
13,24,8023,1,0.5,1.7,13,8.023,0
13,25,4240,1,2,0.95,13,4.24,1
13,26,10859,1,1.4,0.65,13,10.859,1
13,27,3170,1,1.55,0.8,13,3.17,1
13,28,8323,-1,1.4,1.4,13,8.323,1
13,29,2384,1,0.8,0.65,13,2.384,1
13,30,5240,1,1.55,1.1,13,5.24,1
13,31,3112,-1,1.25,0.65,13,3.112,0
13,32,1838,1,0.8,0.5,13,1.838,1
13,33,1973,1,1.55,0.95,13,1.973,1
13,34,1872,1,0.95,0.35,13,1.872,1
13,35,1676,-1,0.65,1.7,13,1.676,1
13,36,9760,1,0.8,1.7,13,9.76,0
13,37,2523,-1,0.2,0.95,13,2.523,1
13,38,5853,1,0.8,0.8,13,5.853,1
13,39,9577,-1,1.7,2,13,9.577,1
13,40,5493,1,1.55,1.7,13,5.493,0
13,41,1823,-1,0.15,1.7,13,1.823,1
13,42,1629,-1,0.35,1.7,13,1.629,1
13,43,1205,1,0.65,0.2,13,1.205,1
13,44,2014,1,2,1.7,13,2.014,1
13,45,3254,-1,0.65,1.25,13,3.254,1
13,46,1280,-1,0.65,0.8,13,1.28,1
13,47,1452,-1,1.25,1.7,13,1.452,1
13,48,1188,-1,0.35,0.95,13,1.188,1
13,49,1774,-1,0.35,0.65,13,1.774,1
13,50,1562,-1,0.2,1.7,13,1.562,1
13,51,2817,1,1.1,0.95,13,2.817,1
13,52,1970,-1,1.55,1.7,13,1.97,1
13,53,2120,-1,0.95,1.55,13,2.12,1
13,54,7061,-1,1.25,1.4,13,7.061,1
13,55,1895,1,1.7,0.65,13,1.895,1
13,56,2393,-1,0.95,1.85,13,2.393,1
13,57,2211,1,0.95,0.65,13,2.211,1
13,58,2508,-1,0.15,0.45,13,2.508,1
13,59,2824,-1,1.1,1.55,13,2.824,1
13,60,1679,1,0.5,0.95,13,1.679,0
13,61,1131,1,1.25,0.5,13,1.131,1
13,62,2595,1,1.7,1.1,13,2.595,1
13,63,3503,-1,1.7,0.8,13,3.503,0
13,64,1536,-1,0.2,1.7,13,1.536,1
13,65,2417,1,1.1,0.8,13,2.417,1
13,66,2395,-1,0.95,1.7,13,2.395,1
13,67,1125,1,1.4,0.35,13,1.125,1
13,68,2151,1,0.65,1.25,13,2.151,0
13,69,1352,-1,0,1.55,13,1.352,1
13,70,8065,1,1.4,1.4,13,8.065,1
13,71,2867,1,0.65,0.95,13,2.867,0
13,72,8247,1,0.8,1.4,13,8.247,0
13,73,2116,-1,0.5,0.5,13,2.116,1
13,74,1469,1,1.7,0.65,13,1.469,1
13,75,1653,-1,0.5,0.8,13,1.653,1
13,76,1432,1,1.7,0.5,13,1.432,1
13,77,3820,-1,1.7,1.55,13,3.82,0
13,78,9054,1,1.25,0.5,13,9.054,1
13,79,4429,1,2,0.95,13,4.429,1
13,80,2832,-1,0.95,2,13,2.832,1
13,81,3220,1,1.55,1.25,13,3.22,1
13,82,1810,1,1.7,0.15,13,1.81,1
13,83,1595,-1,0.2,0.65,13,1.595,1
13,84,1619,-1,1.7,1.55,13,1.619,0
13,85,1387,1,0.5,0.5,13,1.387,1
13,86,2547,1,1.7,0.35,13,2.547,1
13,87,5361,1,1.55,0.95,13,5.361,1
13,88,2328,1,0.95,0.2,13,2.328,1
13,89,2485,-1,1.7,0.5,13,2.485,0
13,90,3548,1,2,1.7,13,3.548,1
13,91,1978,-1,0.65,1.4,13,1.978,1
13,92,1167,-1,0.95,1.55,13,1.167,1
13,93,1476,-1,0.95,0.5,13,1.476,0
13,94,1537,-1,0.5,1.25,13,1.537,1
13,95,1131,-1,0.95,0.95,13,1.131,1
13,96,2759,1,1.4,1.25,13,2.759,1
13,97,2331,1,1.4,0.45,13,2.331,1
13,98,1456,1,0.8,0,13,1.456,1
13,99,1325,-1,0.95,1.1,13,1.325,1
13,100,2046,-1,0.8,0.8,13,2.046,1
13,101,2027,-1,0.95,0.65,13,2.027,0
13,102,2086,1,1.25,1.4,13,2.086,0
13,103,1395,1,1.55,0,13,1.395,1
13,104,4194,-1,1.55,1.85,13,4.194,1
13,105,1504,-1,0.95,2,13,1.504,1
13,106,2114,1,1.7,1.55,13,2.114,1
13,107,7989,-1,1.4,1.7,13,7.989,1
13,108,1435,-1,0.8,1.55,13,1.435,1
13,109,2070,-1,0.95,1.55,13,2.07,1
13,110,6107,-1,1.1,1.7,13,6.107,1
13,111,3078,-1,0.65,1.4,13,3.078,1
13,112,6019,1,0.95,0.8,13,6.019,1
13,113,1448,-1,0.5,1.55,13,1.448,1
13,114,1003,-1,0.5,0.65,13,1.003,1
13,115,3646,1,0.65,0.95,13,3.646,0
13,116,2271,1,1.85,0.95,13,2.271,1
13,117,4375,1,1.55,1.7,13,4.375,0
13,118,2502,1,1.25,0.65,13,2.502,1
13,119,1612,1,1.7,0.2,13,1.612,1
14,0,4454,1,3,1.25,14,4.454,1
14,1,4352,-1,0.95,1.85,14,4.352,1
14,2,11312,1,2.3,3,14,11.312,0
14,3,2681,1,2,2,14,2.681,1
14,4,4703,-1,1.1,2.15,14,4.703,1
14,5,3569,-1,1.1,1.55,14,3.569,1
14,6,2993,-1,0,0.95,14,2.993,1
14,7,6628,-1,2.45,2.6,14,6.628,1
14,8,6188,1,1.7,1.7,14,6.188,1
14,9,2743,1,2,1.25,14,2.743,1
14,10,3464,1,1.7,2,14,3.464,0
14,11,4531,1,2.6,1.55,14,4.531,1
14,12,3179,1,1.4,0,14,3.179,1
14,13,6067,-1,1.7,2.3,14,6.067,1
14,14,2480,1,1.7,0,14,2.48,1
14,15,5211,1,2,1.7,14,5.211,1
14,16,3212,1,1.7,0.8,14,3.212,1
14,17,6119,-1,1.85,2.15,14,6.119,1
14,18,4090,-1,0,0.35,14,4.09,1
14,19,2879,-1,0,1.85,14,2.879,1
14,20,3324,-1,1.55,2.3,14,3.324,1
14,21,2039,1,2.15,0.95,14,2.039,1
14,22,2871,1,1.85,2,14,2.871,0
14,23,2022,-1,0.95,2,14,2.022,1
14,24,3007,-1,1.55,0.95,14,3.007,0
14,25,3320,1,1.85,1.1,14,3.32,1
14,26,3913,-1,2,3,14,3.913,1
14,27,6028,-1,1.1,1.25,14,6.028,1
14,28,6379,-1,2.15,1.7,14,6.379,0
14,29,6732,1,1.85,1.85,14,6.732,1
14,30,2985,1,2.45,2.15,14,2.985,1
14,31,4737,1,2.3,1.7,14,4.737,1
14,32,2744,1,2,0.95,14,2.744,1
14,33,2859,1,1.85,1.7,14,2.859,1
14,34,3178,-1,0,1.7,14,3.178,1
14,35,1511,-1,0,2.45,14,1.511,1
14,36,2823,-1,0.8,2.15,14,2.823,1
14,37,4818,1,2,2.15,14,4.818,0
14,38,4708,1,2.45,2.3,14,4.708,1
14,39,1936,-1,0,2.45,14,1.936,1
14,40,2170,1,1.85,1.25,14,2.17,1
14,41,1736,1,2.3,1.85,14,1.736,1
14,42,2153,1,1.55,2.6,14,2.153,0
14,43,4170,1,1.25,1.1,14,4.17,1
14,44,2457,1,2,1.4,14,2.457,1
14,45,3468,1,0.95,1.1,14,3.468,0
14,46,2333,1,1.7,0.95,14,2.333,1
14,47,8094,-1,2.15,2,14,8.094,0
14,48,2941,1,2,1.1,14,2.941,1
14,49,1930,-1,0,2,14,1.93,1
14,50,4255,-1,1.25,1.7,14,4.255,1
14,51,1913,1,2.45,0,14,1.913,1
14,52,2146,-1,0,1.7,14,2.146,1
14,53,2866,1,2.45,1.1,14,2.866,1
14,54,2970,1,2.15,1.55,14,2.97,1
14,55,2564,-1,1.1,1.85,14,2.564,1
14,56,4977,-1,1.85,1.85,14,4.977,1
14,57,3595,-1,2,2.15,14,3.595,1
14,58,2714,-1,1.7,2.3,14,2.714,1
14,59,4681,1,1.25,2,14,4.681,0
14,60,1816,-1,0,1.4,14,1.816,1
14,61,4904,1,2,2.15,14,4.904,0
14,62,1497,-1,0.8,1.7,14,1.497,1
14,63,2145,-1,0.35,2.15,14,2.145,1
14,64,2733,1,3,1.7,14,2.733,1
14,65,2456,-1,0,1.85,14,2.456,1
14,66,3759,1,2.15,1.85,14,3.759,1
14,67,2258,-1,0.95,2.15,14,2.258,1
14,68,2855,1,2.45,2,14,2.855,1
14,69,1396,1,2.45,0.95,14,1.396,1
14,70,1838,1,1.7,0,14,1.838,1
14,71,2858,-1,1.85,2.15,14,2.858,1
14,72,4266,1,2.3,1.7,14,4.266,1
14,73,3289,1,1.85,0.95,14,3.289,1
14,74,3512,1,3,2,14,3.512,1
14,75,2041,-1,1.25,3,14,2.041,1
14,76,2834,1,0.95,1.55,14,2.834,0
14,77,7334,1,1.55,0.95,14,7.334,1
14,78,1898,-1,1.7,1.85,14,1.898,1
14,79,3118,-1,2,2,14,3.118,1
14,80,1887,-1,0.95,1.7,14,1.887,1
14,81,2600,1,0.35,0,14,2.6,1
14,82,2544,-1,2,2.45,14,2.544,1
14,83,2006,-1,1.85,2.3,14,2.006,1
14,84,2698,1,1.55,1.1,14,2.698,1
14,85,3444,-1,1.7,2,14,3.444,1
14,86,4399,-1,1.1,1.25,14,4.399,1
14,87,3860,1,0.95,2,14,3.86,0
14,88,1932,-1,1.55,2.15,14,1.932,1
14,89,1409,-1,1.25,1.85,14,1.409,1
14,90,18545,-1,2.6,2.45,14,18.545,0
14,91,7308,1,2.15,0.8,14,7.308,1
14,92,7756,1,1.85,0,14,7.756,1
14,93,5929,1,2.15,1.1,14,5.929,1
14,94,2317,-1,0.95,2.45,14,2.317,1
14,95,2980,1,1.7,1.25,14,2.98,1
14,96,2783,1,1.85,0,14,2.783,1
14,97,2820,1,2.15,1.85,14,2.82,1
14,98,2438,-1,2,1.85,14,2.438,0
14,99,3368,1,1.7,1.7,14,3.368,1
14,100,4929,1,2.15,2,14,4.929,1
14,101,7561,-1,2.3,2.45,14,7.561,1
14,102,5267,1,1.25,1.1,14,5.267,1
14,103,2097,-1,1.1,2.45,14,2.097,1
14,104,1957,1,2.15,0.35,14,1.957,1
14,105,1623,-1,1.1,2,14,1.623,1
14,106,3646,1,1.7,2.15,14,3.646,0
14,107,3613,-1,2,1.7,14,3.613,0
14,108,2404,-1,1.4,2,14,2.404,1
14,109,2830,1,2.3,1.55,14,2.83,1
14,110,8251,-1,2.15,2,14,8.251,0
14,111,1878,-1,1.7,3,14,1.878,1
14,112,1775,-1,1.1,0.95,14,1.775,0
14,113,2765,1,2,0,14,2.765,1
14,114,1924,-1,2.15,2.45,14,1.924,1
14,115,5583,1,3,2.3,14,5.583,1
14,116,4854,1,2,0.95,14,4.854,1
14,117,1734,1,2.45,0,14,1.734,1
14,118,1890,1,0.95,0,14,1.89,1
14,119,2238,-1,0.95,1.55,14,2.238,1
15,0,2497,1,0.05,1.55,15,2.497,0
15,1,5320,-1,1.55,2,15,5.32,1
15,2,2496,1,0.05,0.35,15,2.496,0
15,3,4516,1,0.05,0.05,15,4.516,1
15,4,2363,1,0.2,0.35,15,2.363,0
15,5,1699,-1,0.95,0.35,15,1.699,0
15,6,3480,-1,1.55,0.05,15,3.48,0
15,7,1940,1,0.05,0.95,15,1.94,0
15,8,1916,-1,1.85,0,15,1.916,0
15,9,2446,-1,3,0.65,15,2.446,0
15,10,2322,1,0.2,0,15,2.322,1
15,11,2942,-1,0.05,0.35,15,2.942,1
15,12,2542,1,0,2.9,15,2.542,0
15,13,2003,1,0.65,2.75,15,2.003,0
15,14,7000,-1,0.65,0.05,15,7,0
15,15,2129,-1,0.05,0.95,15,2.129,1
15,16,2525,-1,2.9,0.65,15,2.525,0
15,17,3180,1,0,2,15,3.18,0
15,18,3397,1,0.15,0.35,15,3.397,0
15,19,2932,1,0.05,0.05,15,2.932,1
15,20,3483,1,1.55,0.65,15,3.483,1
15,21,2127,-1,0.65,0.05,15,2.127,0
15,22,2335,1,0.05,3,15,2.335,0
15,23,3477,-1,0,0.05,15,3.477,1
15,24,2070,1,0.95,1.85,15,2.07,0
15,25,1440,-1,0.95,0,15,1.44,0
15,26,2658,-1,0.95,0.05,15,2.658,0
15,27,1811,-1,0.05,0.05,15,1.811,1
15,28,1474,-1,3,0.95,15,1.474,0
15,29,1962,1,0.35,3,15,1.962,0
15,30,2214,-1,0.8,0.35,15,2.214,0
15,31,1670,-1,2,0.05,15,1.67,0
15,32,5251,-1,2.15,0.2,15,5.251,0
15,33,1904,1,0.05,2,15,1.904,0
15,34,2916,-1,2.15,0.65,15,2.916,0
15,35,2067,1,1.55,2.15,15,2.067,0
15,36,4629,1,0.05,0.05,15,4.629,1
15,37,1557,-1,0.65,0.05,15,1.557,0
15,38,2256,1,0.2,0.15,15,2.256,1
15,39,1809,1,0.15,1.4,15,1.809,0
15,40,2654,-1,0.05,2.75,15,2.654,1
15,41,3196,-1,0.35,0.05,15,3.196,0
15,42,2461,1,0.35,0.15,15,2.461,1
15,43,5769,1,2,2,15,5.769,1
15,44,1913,1,1.55,0.95,15,1.913,1
15,45,2606,-1,0,0,15,2.606,1
15,46,2965,1,2.6,1.25,15,2.965,1
15,47,1649,-1,1.25,0.35,15,1.649,0
15,48,5740,-1,0.05,0.05,15,5.74,1
15,49,4941,1,0.35,0.65,15,4.941,0
15,50,4544,1,1.4,0.8,15,4.544,1
15,51,2454,1,0.35,0.2,15,2.454,1
15,52,4667,-1,0.05,0.2,15,4.667,1
15,53,2043,1,0.95,0.05,15,2.043,1
15,54,1644,1,0.15,1.55,15,1.644,0
15,55,2385,1,0.95,0.05,15,2.385,1
15,56,1566,-1,0.05,2.15,15,1.566,1
15,57,2514,-1,0.05,1.55,15,2.514,1
15,58,2411,-1,0.95,0.05,15,2.411,0
15,59,2439,1,2.15,0.95,15,2.439,1
15,60,1917,1,2,0.05,15,1.917,1
15,61,3602,1,1.4,0.15,15,3.602,1
15,62,5816,-1,0.65,3,15,5.816,1
15,63,3830,-1,0.05,0.05,15,3.83,1
15,64,2843,-1,0.05,0.65,15,2.843,1
15,65,2092,1,0.65,1.55,15,2.092,0
15,66,1786,1,2.6,0.2,15,1.786,1
15,67,1897,1,2,0,15,1.897,1
15,68,5314,-1,0,2.15,15,5.314,1
15,69,1594,-1,0.05,1.55,15,1.594,1
15,70,2504,-1,0.15,0.65,15,2.504,1
15,71,1865,1,3,0.35,15,1.865,1
15,72,2905,1,0.05,0.35,15,2.905,0
15,73,8727,1,2,1.55,15,8.727,1
15,74,1724,1,0.05,0,15,1.724,1
15,75,5087,-1,0.35,0.95,15,5.087,1
15,76,2575,1,0.05,0.15,15,2.575,0
15,77,2216,-1,0.35,0.8,15,2.216,1
15,78,1398,-1,0.65,2.9,15,1.398,1
15,79,5793,-1,0.15,0.2,15,5.793,1
15,80,4020,-1,0.95,2.15,15,4.02,1
15,81,1513,-1,0.35,0.05,15,1.513,0
15,82,1304,-1,1.55,0.15,15,1.304,0
15,83,2368,1,2.15,0,15,2.368,1
15,84,1642,1,2.9,0,15,1.642,1
15,85,1489,-1,0.05,0.95,15,1.489,1
15,86,1794,1,2.15,1.55,15,1.794,1
15,87,2012,-1,0.65,2.15,15,2.012,1
15,88,1882,1,1.55,0.05,15,1.882,1
15,89,2656,1,0.2,0.05,15,2.656,1
15,90,2675,1,0,0.2,15,2.675,0
15,91,1889,1,0.65,0.15,15,1.889,1
15,92,1732,1,0.35,1.25,15,1.732,0
15,93,1888,1,0.35,0.05,15,1.888,1
15,94,1828,-1,0.05,0.95,15,1.828,1
15,95,1714,-1,0,0.05,15,1.714,1
15,96,1339,-1,0.95,3,15,1.339,1
15,97,1886,-1,0.65,0.35,15,1.886,0
15,98,1558,-1,0.95,1.55,15,1.558,1
15,99,1583,1,2.75,0.05,15,1.583,1
15,100,1633,-1,0,1.85,15,1.633,1
15,101,2514,1,2.75,0.65,15,2.514,1
15,102,1934,-1,0.05,0,15,1.934,0
15,103,2258,1,0,0,15,2.258,1
15,104,1931,-1,0.05,0.65,15,1.931,1
15,105,6284,-1,2,2,15,6.284,1
15,106,1664,1,1.55,0.05,15,1.664,1
15,107,5506,-1,0.2,2.15,15,5.506,1
15,108,3341,-1,0.8,1.4,15,3.341,1
15,109,1235,-1,1.25,2.6,15,1.235,1
15,110,1593,1,3,0.05,15,1.593,1
15,111,4282,1,0.05,0.05,15,4.282,1
15,112,2380,-1,0,0.95,15,2.38,1
15,113,1219,-1,0.2,2.6,15,1.219,1
15,114,1495,1,1.85,0.95,15,1.495,1
15,115,1786,1,0.05,0.05,15,1.786,1
15,116,2240,-1,0.15,0.05,15,2.24,0
15,117,1783,1,2.15,0.05,15,1.783,1
15,118,2204,-1,0.05,2,15,2.204,1
15,119,1922,-1,0.05,0.65,15,1.922,1
16,0,3202,-1,0.2,0.95,16,3.202,1
16,1,6774,1,0.65,0.5,16,6.774,1
16,2,1737,-1,0,0.8,16,1.737,1
16,3,1977,-1,0,0.05,16,1.977,1
16,4,4340,1,0.5,0.05,16,4.34,1
16,5,1853,-1,0,0,16,1.853,1
16,6,2154,-1,0.2,0.95,16,2.154,1
16,7,3933,1,0.2,0,16,3.933,1
16,8,2253,1,0.35,0.05,16,2.253,1
16,9,5243,-1,0,0,16,5.243,1
16,10,3433,-1,0.05,0,16,3.433,0
16,11,2245,-1,0.05,0.2,16,2.245,1
16,12,1557,1,0.95,0,16,1.557,1
16,13,2176,-1,0.2,0.2,16,2.176,1
16,14,2211,-1,0,0.8,16,2.211,1
16,15,7038,1,0.2,0.05,16,7.038,1
16,16,5009,-1,0.35,0.35,16,5.009,1
16,17,1475,-1,0,0,16,1.475,1
16,18,2250,-1,0.05,0.65,16,2.25,1
16,19,3887,-1,0.05,0.05,16,3.887,1
16,20,1423,-1,0.35,0.65,16,1.423,1
16,21,2410,1,0,0,16,2.41,1
16,22,4945,1,0.2,0.8,16,4.945,0
16,23,5351,-1,0.2,0.05,16,5.351,0
16,24,2387,-1,0,0.2,16,2.387,1
16,25,2937,-1,0,0.5,16,2.937,1
16,26,3483,1,0.35,0,16,3.483,1
16,27,2290,1,0.35,0.05,16,2.29,1
16,28,2067,-1,0.2,0.5,16,2.067,1
16,29,2748,1,0.2,0,16,2.748,1
16,30,2044,-1,0.35,0.8,16,2.044,1
16,31,3660,-1,0.2,0.5,16,3.66,1
16,32,1384,-1,0,0.35,16,1.384,1
16,33,1821,1,0.05,0,16,1.821,1
16,34,2800,1,0.5,0.2,16,2.8,1
16,35,2268,1,0.2,0,16,2.268,1
16,36,1727,-1,0,0.2,16,1.727,1
16,37,1781,1,0.2,0.35,16,1.781,0
16,38,2045,-1,0,0.5,16,2.045,1
16,39,1715,1,0.35,0,16,1.715,1
16,40,3047,1,0.05,0.2,16,3.047,0
16,41,1796,-1,0,0.35,16,1.796,1
16,42,1575,1,0.05,0,16,1.575,1
16,43,4728,-1,0.2,0.2,16,4.728,1
16,44,1710,-1,0.95,0.2,16,1.71,0
16,45,1986,1,0.5,0,16,1.986,1
16,46,2761,1,0.35,0.2,16,2.761,1
16,47,1843,-1,0,0,16,1.843,1
16,48,1576,1,0.8,0,16,1.576,1
16,49,3296,-1,0.95,0.8,16,3.296,0
16,50,1381,1,0,0,16,1.381,1
16,51,1658,-1,0.2,0,16,1.658,0
16,52,2028,-1,0.05,0.35,16,2.028,1
16,53,2107,1,0.2,0,16,2.107,1
16,54,1469,1,0.95,0,16,1.469,1
16,55,1982,1,0,0,16,1.982,1
16,56,1591,1,0.05,0,16,1.591,1
16,57,2348,1,0.8,0.2,16,2.348,1
16,58,1506,1,0.2,0,16,1.506,1
16,59,1585,-1,0.05,0.5,16,1.585,1
16,60,1997,-1,0.2,0.5,16,1.997,1
16,61,1349,-1,0,0.35,16,1.349,1
16,62,2011,1,0.35,0.35,16,2.011,1
16,63,1726,1,0.05,0.8,16,1.726,0
16,64,1718,1,0.95,0,16,1.718,1
16,65,2467,-1,0,0.2,16,2.467,1
16,66,2025,1,0.5,0,16,2.025,1
16,67,2975,-1,0,0.2,16,2.975,1
16,68,3665,-1,0.05,0.2,16,3.665,1
16,69,5711,-1,0.2,0.05,16,5.711,0
16,70,1827,-1,0,0.05,16,1.827,1
16,71,2697,-1,0.35,0.5,16,2.697,1
16,72,2819,1,0.8,0.35,16,2.819,1
16,73,3166,-1,0,0,16,3.166,1
16,74,2915,1,0,0,16,2.915,1
16,75,2512,-1,0,0.65,16,2.512,1
16,76,1941,1,0.5,0.35,16,1.941,1
16,77,4040,-1,0.2,0.5,16,4.04,1
16,78,1901,1,0.5,0,16,1.901,1
16,79,1230,-1,0,0.95,16,1.23,1
16,80,3193,1,0,0.05,16,3.193,0
16,81,1312,1,0.95,0.2,16,1.312,1
16,82,1659,1,0.5,0,16,1.659,1
16,83,1695,-1,0.05,0.35,16,1.695,1
16,84,1424,-1,0.35,0.2,16,1.424,0
16,85,1682,1,0,0,16,1.682,1
16,86,1391,-1,0,0.35,16,1.391,1
16,87,2446,-1,0,0.05,16,2.446,1
16,88,1306,-1,0,0.95,16,1.306,1
16,89,1803,1,0,0,16,1.803,1
16,90,1783,-1,0.5,0.65,16,1.783,1
16,91,2232,1,0.2,0.2,16,2.232,1
16,92,2183,1,0.65,0.05,16,2.183,1
16,93,2370,1,0,0.5,16,2.37,0
16,94,1935,1,0.8,0.05,16,1.935,1
16,95,1602,1,0.5,0.2,16,1.602,1
16,96,1590,1,0.8,0,16,1.59,1
16,97,2116,-1,0,0.5,16,2.116,1
16,98,3692,1,0,0.2,16,3.692,0
16,99,2845,1,0.05,0,16,2.845,1
16,100,2089,1,0.2,0.2,16,2.089,1
16,101,1893,1,0.8,0.95,16,1.893,0
16,102,1566,1,0.5,0.2,16,1.566,1
16,103,2001,-1,0,0.2,16,2.001,1
16,104,1690,-1,0,0.2,16,1.69,1
16,105,1360,-1,0.35,0.5,16,1.36,1
16,106,4323,1,0.5,0.35,16,4.323,1
16,107,1986,1,0.05,0.05,16,1.986,1
16,108,1937,1,0.65,0,16,1.937,1
16,109,2501,1,0.35,0,16,2.501,1
16,110,1366,-1,0.05,0.2,16,1.366,1
16,111,1967,1,0.35,0,16,1.967,1
16,112,2263,1,0,0,16,2.263,1
16,113,2189,1,0.65,0.35,16,2.189,1
16,114,2452,1,0.5,0.2,16,2.452,1
16,115,1208,-1,0,0.95,16,1.208,1
16,116,1831,-1,0,0.05,16,1.831,1
16,117,2775,1,0.2,0.05,16,2.775,1
16,118,3291,-1,0.2,0.35,16,3.291,1
16,119,1618,1,0.2,0,16,1.618,1
17,0,2368,-1,0,1.25,17,2.368,1
17,1,1790,1,1.85,1.55,17,1.79,1
17,2,4283,1,0.8,0.2,17,4.283,1
17,3,1936,-1,1.4,1.85,17,1.936,1
17,4,2561,1,1.1,1.1,17,2.561,1
17,5,2634,1,1.7,0,17,2.634,1
17,6,3844,1,1.55,0.95,17,3.844,1
17,7,2388,-1,1.55,1.55,17,2.388,1
17,8,2878,-1,0,0.95,17,2.878,1
17,9,2037,-1,0.35,0.8,17,2.037,1
17,10,3801,-1,1.85,1.55,17,3.801,0
17,11,1999,-1,2,1.7,17,1.999,0
17,12,1938,-1,0.95,2.75,17,1.938,1
17,13,1981,-1,0,1.7,17,1.981,1
17,14,2402,1,1.85,0,17,2.402,1
17,15,5550,-1,0.2,1.4,17,5.55,1
17,16,1902,1,2,0.35,17,1.902,1
17,17,1958,1,0,0,17,1.958,1
17,18,1852,-1,0.65,1.85,17,1.852,1
17,19,1798,1,1.55,0,17,1.798,1
17,20,1519,-1,0,0.8,17,1.519,1
17,21,1506,1,1.85,0.5,17,1.506,1
17,22,7039,-1,0.95,1.55,17,7.039,1
17,23,1089,-1,1.25,1.7,17,1.089,1
17,24,1857,1,0.5,0.65,17,1.857,0
17,25,1632,1,1.85,1.1,17,1.632,1
17,26,3229,-1,1.7,1.85,17,3.229,1
17,27,4503,-1,0,1.85,17,4.503,1
17,28,1549,-1,2,1.7,17,1.549,0
17,29,3358,1,2,0.2,17,3.358,1
17,30,1885,-1,0.35,1.55,17,1.885,1
17,31,1451,-1,0,2,17,1.451,1
17,32,1908,-1,2.3,1.1,17,1.908,0
17,33,5337,1,1.7,1.4,17,5.337,1
17,34,8376,1,1.7,0.8,17,8.376,1
17,35,1847,1,0,0,17,1.847,1
17,36,1912,1,2,1.85,17,1.912,1
17,37,4241,-1,0.05,1.4,17,4.241,1
17,38,3685,1,2.75,2.3,17,3.685,1
17,39,2400,1,0.35,0.2,17,2.4,1
17,40,5568,-1,2,1.85,17,5.568,0
17,41,2958,-1,1.4,1.55,17,2.958,1
17,42,1213,-1,1.1,2,17,1.213,1
17,43,1154,-1,0.5,1.85,17,1.154,1
17,44,1902,1,0,0,17,1.902,1
17,45,2870,1,0.8,0,17,2.87,1
17,46,1571,-1,0,1.55,17,1.571,1
17,47,2710,1,2.75,0.95,17,2.71,1
17,48,1899,1,1.55,1.85,17,1.899,0
17,49,6174,-1,1.55,1.7,17,6.174,1
17,50,3292,1,1.55,0.35,17,3.292,1
17,51,4194,-1,0.8,1.85,17,4.194,1
17,52,1566,1,2,0,17,1.566,1
17,53,1476,1,1.55,1.55,17,1.476,1
17,54,1574,1,1.55,0.95,17,1.574,1
17,55,1800,1,1.85,0.65,17,1.8,1
17,56,2528,-1,0.8,1.85,17,2.528,1
17,57,1707,-1,0,1.4,17,1.707,1
17,58,1782,1,1.7,1.25,17,1.782,1
17,59,2173,1,1.85,1.85,17,2.173,1
17,60,3800,-1,1.4,1.7,17,3.8,1
17,61,2914,-1,0,2,17,2.914,1
17,62,2171,-1,0.65,0.5,17,2.171,0
17,63,1574,1,1.85,0.8,17,1.574,1
17,64,4009,-1,0,0.95,17,4.009,1
17,65,3606,1,1.25,0,17,3.606,1
17,66,2914,-1,0,0,17,2.914,1
17,67,1846,1,1.1,2.3,17,1.846,0
17,68,1973,-1,0.05,0.95,17,1.973,1
17,69,2145,-1,1.7,2,17,2.145,1
17,70,1151,-1,2.3,2.75,17,1.151,1
17,71,1638,1,1.4,0.05,17,1.638,1
17,72,1267,-1,1.55,0.8,17,1.267,0
17,73,2912,1,0.8,0.8,17,2.912,1
17,74,2418,1,1.1,1.1,17,2.418,1
17,75,5234,-1,0,1.7,17,5.234,1
17,76,1538,-1,0,1.7,17,1.538,1
17,77,1373,-1,0,1.1,17,1.373,1
17,78,2162,1,1.7,2,17,2.162,0
17,79,6511,1,1.7,0,17,6.511,1
17,80,2150,1,1.85,0.8,17,2.15,1
17,81,3372,1,0.8,1.7,17,3.372,0
17,82,1234,-1,0.35,2,17,1.234,1
17,83,1575,1,1.7,0,17,1.575,1
17,84,1808,1,1.55,0,17,1.808,1
17,85,1146,-1,0,1.55,17,1.146,1
17,86,3977,1,1.4,0.2,17,3.977,1
17,87,2326,1,2,1.1,17,2.326,1
17,88,5233,1,1.7,1.55,17,5.233,1
17,89,2181,-1,0.2,0.8,17,2.181,1
17,90,3934,-1,0,1.85,17,3.934,1
17,91,2216,1,1.85,1.7,17,2.216,1
17,92,1905,1,1.7,2,17,1.905,0
17,93,5761,-1,0,0,17,5.761,1
17,94,5271,1,2,1.7,17,5.271,1
17,95,1283,-1,1.1,1.85,17,1.283,1
17,96,1724,1,1.1,0,17,1.724,1
17,97,1878,1,1.85,0,17,1.878,1
17,98,1927,1,0.8,0.35,17,1.927,1
17,99,1833,1,0.95,0.05,17,1.833,1
17,100,1639,1,0.95,0,17,1.639,1
17,101,1657,1,1.4,0,17,1.657,1
17,102,1261,-1,0.8,0.8,17,1.261,1
17,103,1807,-1,0,0,17,1.807,1
17,104,4477,-1,0.2,0.35,17,4.477,1
17,105,1119,-1,0.2,2,17,1.119,1
17,106,3391,1,1.55,1.4,17,3.391,1
17,107,3090,-1,1.85,2,17,3.09,1
17,108,1948,1,1.7,0,17,1.948,1
17,109,3342,-1,1.85,1.85,17,3.342,1
17,110,2577,1,1.85,1.4,17,2.577,1
17,111,2612,-1,1.85,2,17,2.612,1
17,112,1751,1,0.8,1.55,17,1.751,0
17,113,1666,1,0.95,0,17,1.666,1
17,114,7434,-1,0.95,1.55,17,7.434,1
17,115,2355,1,1.85,0.8,17,2.355,1
17,116,2085,1,2,0,17,2.085,1
17,117,1840,-1,0,1.7,17,1.84,1
17,118,2820,-1,0.8,1.85,17,2.82,1
17,119,1137,-1,1.55,1.85,17,1.137,1
18,0,5338,-1,0.65,0.35,18,5.338,0
18,1,2803,1,0.35,0.65,18,2.803,0
18,2,3064,-1,0.35,0.05,18,3.064,0
18,3,2719,1,0.5,0.35,18,2.719,1
18,4,2056,1,0.95,0.5,18,2.056,1
18,5,3514,-1,0.5,0.8,18,3.514,1
18,6,3179,-1,0,0.5,18,3.179,1
18,7,2017,1,1.1,0.65,18,2.017,1
18,8,4342,-1,0.8,0.35,18,4.342,0
18,9,5359,-1,0.35,0.65,18,5.359,1
18,10,6861,-1,0.5,0.5,18,6.861,1
18,11,5881,1,0.65,0.65,18,5.881,1
18,12,2890,1,0.95,0.35,18,2.89,1
18,13,3117,-1,0.2,0.8,18,3.117,1
18,14,1878,1,0.95,0.5,18,1.878,1
18,15,2424,1,0.8,0.35,18,2.424,1
18,16,2592,1,0.5,0.5,18,2.592,1
18,17,1661,1,0.35,0.5,18,1.661,0
18,18,2834,-1,0.65,0.65,18,2.834,1
18,19,3292,1,0.2,0.35,18,3.292,0
18,20,3419,-1,0.5,0.35,18,3.419,0
18,21,3702,1,0.65,0.8,18,3.702,0
18,22,3939,1,0.5,1.4,18,3.939,0
18,23,4697,1,0.95,0,18,4.697,1
18,24,2220,1,0.8,0.2,18,2.22,1
18,25,1736,1,0.35,1.25,18,1.736,0
18,26,3137,1,0.5,0.2,18,3.137,1
18,27,2002,-1,0.5,0.2,18,2.002,0
18,28,2642,1,0.65,0.5,18,2.642,1
18,29,2051,-1,0.5,0.35,18,2.051,0
18,30,2132,1,0.5,0.35,18,2.132,1
18,31,2193,-1,0.2,0.65,18,2.193,1
18,32,1992,-1,0.5,0.2,18,1.992,0
18,33,2537,-1,0.5,1.1,18,2.537,1
18,34,1793,-1,0.8,0.95,18,1.793,1
18,35,2361,-1,0.65,0.8,18,2.361,1
18,36,1504,-1,1.1,0.65,18,1.504,0
18,37,2808,1,0.8,0.95,18,2.808,0
18,38,1775,-1,0.5,0.95,18,1.775,1
18,39,2204,-1,0.8,0.65,18,2.204,0
18,40,3660,-1,0.2,0.5,18,3.66,1
18,41,2284,-1,0.35,0.2,18,2.284,0
18,42,3655,-1,0.35,0.8,18,3.655,1
18,43,2916,1,0.65,0.65,18,2.916,1
18,44,2110,1,0.65,0.35,18,2.11,1
18,45,2289,-1,0.35,0.5,18,2.289,1
18,46,2264,1,0.95,0.8,18,2.264,1
18,47,2187,-1,0.2,0.8,18,2.187,1
18,48,2346,1,0.95,0.5,18,2.346,1
18,49,1371,-1,0.5,1.1,18,1.371,1
18,50,1567,-1,0.5,0.35,18,1.567,0
18,51,1897,-1,0,0.95,18,1.897,1
18,52,2171,-1,0.8,0.35,18,2.171,0
18,53,1874,1,0.35,1.1,18,1.874,0
18,54,2115,-1,0.5,0.5,18,2.115,1
18,55,2935,1,1.4,0.5,18,2.935,1
18,56,2699,1,0.5,0.5,18,2.699,1
18,57,2021,-1,0.8,0.65,18,2.021,0
18,58,1658,1,0.8,0.8,18,1.658,1
18,59,1229,1,0.65,0.5,18,1.229,1
18,60,5232,1,0.65,0.05,18,5.232,1
18,61,2872,1,0.95,0.65,18,2.872,1
18,62,1945,1,0.35,0.35,18,1.945,1
18,63,1719,-1,0.5,0.5,18,1.719,1
18,64,2302,1,0.65,0.35,18,2.302,1
18,65,2446,-1,0.5,0.2,18,2.446,0
18,66,1653,-1,0.65,0.35,18,1.653,0
18,67,2246,-1,0.35,0.8,18,2.246,1
18,68,2150,-1,1.25,0.5,18,2.15,0
18,69,2467,1,0.8,0.5,18,2.467,1
18,70,2928,1,0.5,0.35,18,2.928,1
18,71,2289,1,1.1,0.5,18,2.289,1
18,72,5093,1,0.35,0.2,18,5.093,1
18,73,2037,1,0.05,0.35,18,2.037,0
18,74,4740,-1,0.8,0.5,18,4.74,0
18,75,1870,1,0.35,0.65,18,1.87,0
18,76,2514,1,0.2,0.5,18,2.514,0
18,77,1991,1,0.65,0.65,18,1.991,1
18,78,3302,1,0.5,0.65,18,3.302,0
18,79,2662,1,0.65,0.8,18,2.662,0
18,80,2602,1,0.5,1.25,18,2.602,0
18,81,1765,1,0.65,1.1,18,1.765,0
18,82,2447,1,0.5,0,18,2.447,1
18,83,1967,1,1.1,0.5,18,1.967,1
18,84,3668,1,0.8,0.65,18,3.668,1
18,85,1566,-1,0.35,0.5,18,1.566,1
18,86,2721,-1,0.05,0.65,18,2.721,1
18,87,3255,-1,0.65,0.35,18,3.255,0
18,88,4637,1,0.35,0.5,18,4.637,0
18,89,2179,-1,1.1,0.35,18,2.179,0
18,90,1611,1,0.35,0.5,18,1.611,0
18,91,1688,-1,0.5,0.65,18,1.688,1
18,92,3619,-1,0.35,0.2,18,3.619,0
18,93,1787,1,0.35,0.5,18,1.787,0
18,94,1951,1,0.2,0.5,18,1.951,0
18,95,2518,1,0.8,0.2,18,2.518,1
18,96,1448,-1,0.35,0.95,18,1.448,1
18,97,2122,-1,0.5,1.1,18,2.122,1
18,98,3579,1,0.5,0.8,18,3.579,0
18,99,1925,-1,0.5,1.4,18,1.925,1
18,100,2002,-1,0.35,0.35,18,2.002,1
18,101,2430,-1,0.8,0.8,18,2.43,1
18,102,2251,-1,0.35,0.65,18,2.251,1
18,103,1699,-1,0.35,0.65,18,1.699,1
18,104,4589,-1,0.65,0.35,18,4.589,0
18,105,1481,-1,0.65,1.1,18,1.481,1
18,106,1952,1,0.35,0.65,18,1.952,0
18,107,1766,-1,0.5,0.5,18,1.766,1
18,108,1442,-1,0.5,0.95,18,1.442,1
18,109,2041,1,0.35,0.8,18,2.041,0
18,110,2617,-1,0.2,0.35,18,2.617,1
18,111,4101,-1,0.65,0.95,18,4.101,1
18,112,1970,-1,1.25,0.35,18,1.97,0
18,113,3006,1,0.2,0.35,18,3.006,0
18,114,2200,1,0.65,0.2,18,2.2,1
18,115,2853,-1,1.4,0.5,18,2.853,0
18,116,2212,-1,0.5,0.95,18,2.212,1
18,117,4282,-1,1.1,0.5,18,4.282,0
18,118,1943,1,0.95,0.8,18,1.943,1
18,119,4470,-1,0.2,0.5,18,4.47,1
19,0,6226,1,0.8,0.95,19,6.226,0
19,1,3263,1,1.55,1.4,19,3.263,1
19,2,4199,-1,0.65,0.95,19,4.199,1
19,3,9812,1,0.95,0.95,19,9.812,1
19,4,2743,1,0.95,0.95,19,2.743,1
19,5,2520,-1,1.1,1.4,19,2.52,1
19,6,2275,1,1.55,0.95,19,2.275,1
19,7,3333,-1,0.95,0.95,19,3.333,1
19,8,2377,-1,0.95,2,19,2.377,1
19,9,3234,1,1.4,0.95,19,3.234,1
19,10,3483,1,0.95,0.95,19,3.483,1
19,11,2105,1,0.95,2,19,2.105,0
19,12,3170,1,0.95,1.1,19,3.17,0
19,13,2341,-1,0.95,1.55,19,2.341,1
19,14,2383,1,0.95,0.95,19,2.383,1
19,15,2583,1,0.95,0.95,19,2.583,1
19,16,5049,1,0.95,0.95,19,5.049,1
19,17,4060,1,1.1,0.95,19,4.06,1
19,18,2664,-1,1.55,0.95,19,2.664,0
19,19,2700,1,2.15,0.8,19,2.7,1
19,20,2625,-1,1.85,0.95,19,2.625,0
19,21,4005,1,1.55,1.1,19,4.005,1
19,22,3931,1,0.95,0.95,19,3.931,1
19,23,3398,1,2,1.55,19,3.398,1
19,24,2138,1,0.95,0.95,19,2.138,1
19,25,2404,1,0.95,0.95,19,2.404,1
19,26,3213,1,1.1,0.65,19,3.213,1
19,27,1997,-1,1.55,2,19,1.997,1
19,28,2035,1,2.15,1.55,19,2.035,1
19,29,1960,-1,1.1,1.1,19,1.96,1
19,30,3089,-1,0.95,2,19,3.089,1
19,31,2869,-1,0.95,0.95,19,2.869,1
19,32,3308,-1,2,0.95,19,3.308,0
19,33,2289,1,0.95,1.1,19,2.289,0
19,34,2347,-1,0.95,2,19,2.347,1
19,35,1740,1,0.95,1.4,19,1.74,0
19,36,2966,-1,0.95,1.25,19,2.966,1
19,37,1874,1,1.55,1.1,19,1.874,1
19,38,1851,1,1.55,0.95,19,1.851,1
19,39,1688,1,2,0.65,19,1.688,1
19,40,2772,1,0.95,1.55,19,2.772,0
19,41,1851,1,0.95,0.95,19,1.851,1
19,42,1870,1,1.1,1.1,19,1.87,1
19,43,2644,-1,0.95,1.55,19,2.644,1
19,44,1816,1,1.85,1.25,19,1.816,1
19,45,1833,-1,0.5,1.55,19,1.833,1
19,46,1523,1,2,0.95,19,1.523,1
19,47,1429,-1,0.95,0.95,19,1.429,1
19,48,1363,-1,0.8,1.1,19,1.363,1
19,49,2245,-1,1.1,1.55,19,2.245,1
19,50,2279,1,1.1,1.1,19,2.279,1
19,51,3264,1,0.95,2,19,3.264,0
19,52,2464,1,1.4,0.95,19,2.464,1
19,53,2326,1,0.95,0.5,19,2.326,1
19,54,1987,1,1.4,0.95,19,1.987,1
19,55,1752,-1,0.95,0.95,19,1.752,1
19,56,2468,-1,0.95,0.95,19,2.468,1
19,57,1418,-1,0.95,0.95,19,1.418,1
19,58,2354,1,1.55,0.95,19,2.354,1
19,59,1585,-1,1.4,0.95,19,1.585,0
19,60,2622,1,0.95,1.1,19,2.622,0
19,61,1517,1,1.4,1.4,19,1.517,1
19,62,1544,1,0.95,0.65,19,1.544,1
19,63,1912,1,0.95,2,19,1.912,0
19,64,1467,-1,0.8,0.65,19,1.467,0
19,65,1572,1,1.4,1.1,19,1.572,1
19,66,1334,-1,1.55,2,19,1.334,1
19,67,1976,1,1.55,0.95,19,1.976,1
19,68,1516,-1,0.95,0.95,19,1.516,1
19,69,1101,-1,1.1,0.95,19,1.101,0
19,70,1358,-1,1.1,0.95,19,1.358,0
19,71,1313,1,0.95,0.95,19,1.313,1
19,72,1436,-1,2,0.95,19,1.436,0
19,73,3417,-1,1.55,1.4,19,3.417,0
19,74,1447,1,0.95,1.4,19,1.447,0
19,75,2152,1,2,0.95,19,2.152,1
19,76,2086,1,0.95,1.1,19,2.086,0
19,77,2029,-1,0.95,1.4,19,2.029,1
19,78,1241,-1,0.95,1.1,19,1.241,1
19,79,2277,1,0.95,0.95,19,2.277,1
19,80,2395,-1,0.95,1.4,19,2.395,1
19,81,1391,-1,1.1,0.95,19,1.391,0
19,82,2040,-1,1.55,2.15,19,2.04,1
19,83,1514,-1,0.95,0.95,19,1.514,1
19,84,2268,-1,0.95,0.95,19,2.268,1
19,85,1945,1,1.55,0.5,19,1.945,1
19,86,2743,-1,1.4,0.95,19,2.743,0
19,87,1868,1,1.1,0.8,19,1.868,1
19,88,1422,-1,0.5,0.95,19,1.422,1
19,89,1338,-1,0.8,2.15,19,1.338,1
19,90,1123,-1,0.95,0.95,19,1.123,1
19,91,1647,1,0.95,0.95,19,1.647,1
19,92,1369,-1,0.95,0.8,19,1.369,0
19,93,1460,-1,0.65,1.1,19,1.46,1
19,94,1618,1,0.95,1.55,19,1.618,0
19,95,1412,1,1.55,0.95,19,1.412,1
19,96,1508,1,0.95,1.85,19,1.508,0
19,97,1440,1,0.65,0.8,19,1.44,0
19,98,1137,-1,0.95,1.55,19,1.137,1
19,99,2040,1,2,0.95,19,2.04,1
19,100,2754,-1,1.4,1.55,19,2.754,1
19,101,1343,-1,0.95,2,19,1.343,1
19,102,1237,-1,2,0.95,19,1.237,0
19,103,1076,-1,1.25,1.85,19,1.076,1
19,104,1780,1,2,0.95,19,1.78,1
19,105,1639,-1,1.1,1.1,19,1.639,1
19,106,1134,-1,0.95,1.4,19,1.134,1
19,107,1602,1,1.1,1.55,19,1.602,0
19,108,1392,-1,0.65,2,19,1.392,1
19,109,1156,-1,0.95,1.55,19,1.156,1
19,110,1987,1,1.25,0.95,19,1.987,1
19,111,1337,1,0.95,0.95,19,1.337,1
19,112,1423,-1,0.95,0.95,19,1.423,1
19,113,1237,-1,1.4,1.55,19,1.237,1
19,114,3604,-1,0.95,0.95,19,3.604,1
19,115,1187,-1,1.4,1.4,19,1.187,1
19,116,2248,1,0.95,0.95,19,2.248,1
19,117,2175,1,1.1,0.95,19,2.175,1
19,118,1821,1,2,1.55,19,1.821,1
19,119,1736,1,0.95,0.95,19,1.736,1
20,0,2267,1,1.4,0.8,20,2.267,1
20,1,5563,1,0.65,0.35,20,5.563,1
20,2,2849,1,1.1,0.35,20,2.849,1
20,3,2464,-1,0.45,1.1,20,2.464,1
20,4,3343,1,0.35,0.5,20,3.343,0
20,5,6349,1,1.4,1.1,20,6.349,1
20,6,6840,-1,0.8,1.1,20,6.84,1
20,7,4093,1,0.3,0.5,20,4.093,0
20,8,6859,-1,0.65,0.65,20,6.859,1
20,9,2668,1,0.95,0.5,20,2.668,1
20,10,4005,1,0.65,0.45,20,4.005,1
20,11,5189,1,0.35,0.8,20,5.189,0
20,12,12077,-1,0.95,0.8,20,12.077,0
20,13,2738,1,1.1,0.5,20,2.738,1
20,14,8511,-1,0.95,1.55,20,8.511,1
20,15,1971,-1,0.5,0.95,20,1.971,1
20,16,6449,1,1.1,1.25,20,6.449,0
20,17,4766,1,0.65,1.1,20,4.766,0
20,18,10343,1,0.95,0.3,20,10.343,1
20,19,4302,1,1.25,0.65,20,4.302,1
20,20,2190,-1,0,1.55,20,2.19,1
20,21,5200,-1,0.5,1.1,20,5.2,1
20,22,3241,-1,0.65,0.95,20,3.241,1
20,23,3230,-1,1.1,0.5,20,3.23,0
20,24,2208,-1,0,0.5,20,2.208,1
20,25,4344,-1,0.8,0.65,20,4.344,0
20,26,3648,1,0.8,0.35,20,3.648,1
20,27,4829,-1,0.5,0.3,20,4.829,0
20,28,7833,1,0.8,1.1,20,7.833,0
20,29,3509,-1,0,0.65,20,3.509,1
20,30,5678,1,1.4,1.1,20,5.678,1
20,31,9641,-1,0.35,0.95,20,9.641,1
20,32,2641,-1,0.35,0.5,20,2.641,1
20,33,3864,1,0.95,1.1,20,3.864,0
20,34,8579,1,0.95,1.1,20,8.579,0
20,35,4942,-1,0.5,0.5,20,4.942,1
20,36,5459,1,0.95,1.25,20,5.459,0
20,37,3964,1,0.8,0.5,20,3.964,1
20,38,3301,-1,0.5,1.4,20,3.301,1
20,39,2254,1,0.8,0.8,20,2.254,1
20,40,2681,1,0.65,0,20,2.681,1
20,41,1581,1,0.8,0.35,20,1.581,1
20,42,4246,1,0.65,0.65,20,4.246,1
20,43,2473,-1,0.65,0.95,20,2.473,1
20,44,3139,1,0.3,0.95,20,3.139,0
20,45,2291,-1,0.8,0.35,20,2.291,0
20,46,3829,-1,0.45,0.65,20,3.829,1
20,47,6066,-1,0,0.95,20,6.066,1
20,48,2432,1,1.1,0.95,20,2.432,1
20,49,2774,1,1.1,0.5,20,2.774,1
20,50,4400,1,1.1,1.4,20,4.4,0
20,51,7930,1,0.95,0.35,20,7.93,1
20,52,9274,-1,0.65,1.25,20,9.274,1
20,53,3058,-1,1.1,0.65,20,3.058,0
20,54,2230,-1,0,0.8,20,2.23,1
20,55,5704,1,0.95,0.65,20,5.704,1
20,56,5079,-1,1.1,0.95,20,5.079,0
20,57,1947,-1,1.1,0.95,20,1.947,0
20,58,2711,1,1.4,0.5,20,2.711,1
20,59,3762,1,0.65,1.25,20,3.762,0
20,60,2335,-1,0.5,0.5,20,2.335,1
20,61,3882,1,1.4,0.35,20,3.882,1
20,62,3200,-1,0.35,0.8,20,3.2,1
20,63,4185,-1,1.1,1.4,20,4.185,1
20,64,3143,-1,0.8,0.95,20,3.143,1
20,65,2977,-1,0.8,1.1,20,2.977,1
20,66,2672,1,0.8,0.8,20,2.672,1
20,67,2724,-1,0.35,0.8,20,2.724,1
20,68,2598,-1,1.25,1.1,20,2.598,0
20,69,2869,-1,1.25,0.95,20,2.869,0
20,70,1630,-1,0.5,0.95,20,1.63,1
20,71,2344,1,0.65,0.5,20,2.344,1
20,72,2267,-1,0,1.1,20,2.267,1
20,73,5893,1,1.1,0.8,20,5.893,1
20,74,8511,-1,1.1,0.8,20,8.511,0
20,75,2404,-1,0.35,0.8,20,2.404,1
20,76,2464,-1,0.8,1.1,20,2.464,1
20,77,2718,1,0.8,0.35,20,2.718,1
20,78,2665,1,0.5,0.35,20,2.665,1
20,79,3188,1,1.1,0.5,20,3.188,1
20,80,1695,1,1.1,0.45,20,1.695,1
20,81,3538,1,0.5,1.1,20,3.538,0
20,82,1528,-1,0.8,0.8,20,1.528,1
20,83,2970,-1,0.8,1.4,20,2.97,1
20,84,2504,1,1.1,0.8,20,2.504,1
20,85,3809,1,1.55,0.95,20,3.809,1
20,86,2412,1,0.8,0.35,20,2.412,1
20,87,1822,-1,0.35,0.8,20,1.822,1
20,88,4629,-1,0.8,0.95,20,4.629,1
20,89,1817,1,0.5,0,20,1.817,1
20,90,4297,1,0.3,0.5,20,4.297,0
20,91,3360,-1,0.5,0.35,20,3.36,0
20,92,1898,-1,0.5,0.3,20,1.898,0
20,93,2606,-1,0.5,1.1,20,2.606,1
20,94,2195,1,0.65,0.8,20,2.195,0
20,95,2781,-1,0.8,0.8,20,2.781,1
20,96,1788,1,0.95,0.5,20,1.788,1
20,97,1741,-1,0.35,0.8,20,1.741,1
20,98,1558,1,1.1,0,20,1.558,1
20,99,1739,-1,0.35,1.1,20,1.739,1
20,100,2494,1,0.95,0,20,2.494,1
20,101,2268,1,0.95,0.65,20,2.268,1
20,102,3137,-1,0.5,0.8,20,3.137,1
20,103,6736,1,0.95,1.1,20,6.736,0
20,104,4255,-1,0.3,0.95,20,4.255,1
20,105,1375,-1,0.5,1.1,20,1.375,1
20,106,1875,1,0.8,0.35,20,1.875,1
20,107,1598,1,0.8,0,20,1.598,1
20,108,3317,1,1.1,0.8,20,3.317,1
20,109,1928,-1,0.35,1.4,20,1.928,1
20,110,3759,-1,0.95,1.1,20,3.759,1
20,111,1547,1,0.95,0.8,20,1.547,1
20,112,1185,1,1.55,0,20,1.185,1
20,113,4437,-1,1.4,1.1,20,4.437,0
20,114,1457,-1,0.5,0.65,20,1.457,1
20,115,4006,-1,1.25,0.65,20,4.006,0
20,116,1873,-1,1.1,0.95,20,1.873,0
20,117,2094,-1,1.1,1.4,20,2.094,1
20,118,2234,-1,0.35,0.65,20,2.234,1
20,119,2696,-1,0.95,0.3,20,2.696,0
21,0,7276,1,1.85,0.5,21,7.276,1
21,1,5824,1,0.95,1.1,21,5.824,0
21,2,7376,-1,0.95,0.5,21,7.376,0
21,3,3845,-1,0.8,0.5,21,3.845,0
21,4,6311,1,0.35,0,21,6.311,1
21,5,5537,-1,0.35,1.25,21,5.537,1
21,6,3944,1,1.1,0.8,21,3.944,1
21,7,1897,1,0.8,0.8,21,1.897,1
21,8,6357,-1,0.95,1.55,21,6.357,1
21,9,5427,-1,0.95,1.4,21,5.427,1
21,10,4717,1,0.8,0.65,21,4.717,1
21,11,7041,1,1.25,0.8,21,7.041,1
21,12,5918,1,1.85,1.55,21,5.918,1
21,13,5560,-1,1.1,0.5,21,5.56,0
21,14,2630,1,0.65,0,21,2.63,1
21,15,7381,1,2,0.65,21,7.381,1
21,16,3629,-1,0.8,1.4,21,3.629,1
21,17,4150,-1,0.65,0.95,21,4.15,1
21,18,7049,1,1.4,1.1,21,7.049,1
21,19,4999,-1,0,1.1,21,4.999,1
21,20,9862,1,0.5,0.65,21,9.862,0
21,21,4063,-1,1.55,2,21,4.063,1
21,22,6810,-1,0.65,1.1,21,6.81,1
21,23,3101,1,0.95,0.65,21,3.101,1
21,24,2954,1,1.4,1.55,21,2.954,0
21,25,3784,-1,1.1,0.8,21,3.784,0
21,26,6244,1,1.4,0.8,21,6.244,1
21,27,4783,-1,0.8,1.85,21,4.783,1
21,28,3230,-1,0.8,0,21,3.23,0
21,29,4270,-1,1.1,1.1,21,4.27,1
21,30,5210,-1,2,1.25,21,5.21,0
21,31,4081,1,2,0.65,21,4.081,1
21,32,4482,-1,1.25,1.85,21,4.482,1
21,33,2258,1,0,1.4,21,2.258,0
21,34,3033,1,0.65,0.35,21,3.033,1
21,35,4403,-1,0.35,1.55,21,4.403,1
21,36,12058,1,1.4,2,21,12.058,0
21,37,5037,1,1.1,0.5,21,5.037,1
21,38,6049,-1,0.95,1.25,21,6.049,1
21,39,9080,1,0.8,0.65,21,9.08,1
21,40,8186,1,0.35,1.25,21,8.186,0
21,41,3613,1,0.5,0.8,21,3.613,0
21,42,4145,1,1.55,0.95,21,4.145,1
21,43,3821,1,1.1,0,21,3.821,1
21,44,4160,-1,1.1,1.4,21,4.16,1
21,45,4047,1,0.5,0.95,21,4.047,0
21,46,2783,1,0.5,1.1,21,2.783,0
21,47,3198,1,0.8,1.1,21,3.198,0
21,48,4522,-1,1.55,1.4,21,4.522,0
21,49,4851,1,2,0.65,21,4.851,1
21,50,3037,1,0.8,0.95,21,3.037,0
21,51,3206,1,0.5,0.95,21,3.206,0
21,52,7400,-1,0.8,0.35,21,7.4,0
21,53,4123,1,1.85,1.25,21,4.123,1
21,54,2431,1,0.95,1.55,21,2.431,0
21,55,3949,1,1.4,1.1,21,3.949,1
21,56,2789,1,0.8,0.95,21,2.789,0
21,57,4184,1,1.1,1.1,21,4.184,1
21,58,4479,-1,0.65,0.8,21,4.479,1
21,59,3740,1,0.95,1.25,21,3.74,0
21,60,2977,1,1.4,0.8,21,2.977,1
21,61,4256,-1,0.5,1.85,21,4.256,1
21,62,6446,1,1.25,0.65,21,6.446,1
21,63,7220,-1,0,0.8,21,7.22,1
21,64,9269,1,0.65,0.65,21,9.269,1
21,65,7282,1,0.65,2,21,7.282,0
21,66,6824,1,2,1.4,21,6.824,1
21,67,8894,1,1.25,0.95,21,8.894,1
21,68,2872,1,1.1,0,21,2.872,1
21,69,3400,-1,0.5,0.8,21,3.4,1
21,70,3006,1,1.85,0.8,21,3.006,1
21,71,5724,-1,1.25,0.8,21,5.724,0
21,72,2256,1,1.4,0.65,21,2.256,1
21,73,4666,-1,0.8,1.4,21,4.666,1
21,74,2353,-1,0.65,0.95,21,2.353,1
21,75,3690,-1,0.65,0.5,21,3.69,0
21,76,2113,1,1.4,1.25,21,2.113,1
21,77,4074,-1,0.95,1.4,21,4.074,1
21,78,6208,-1,0.8,1.25,21,6.208,1
21,79,3112,-1,0.95,0.65,21,3.112,0
21,80,4667,1,1.85,0.5,21,4.667,1
21,81,3084,1,0.95,1.1,21,3.084,0
21,82,2951,-1,0.95,0.5,21,2.951,0
21,83,2642,-1,0.8,0.5,21,2.642,0
21,84,3736,1,0.35,0,21,3.736,1
21,85,2900,-1,0.35,1.25,21,2.9,1
21,86,4960,1,1.1,0.8,21,4.96,1
21,87,4629,1,0.8,0.8,21,4.629,1
21,88,2670,-1,0.95,1.55,21,2.67,1
21,89,6760,-1,0.95,1.4,21,6.76,1
21,90,4611,1,0.8,0.65,21,4.611,1
21,91,3053,1,1.25,0.8,21,3.053,1
21,92,9550,1,1.85,1.55,21,9.55,1
21,93,3290,-1,1.1,0.5,21,3.29,0
21,94,2609,1,0.65,0,21,2.609,1
21,95,4385,-1,2,0.65,21,4.385,0
21,96,2633,-1,0.8,1.4,21,2.633,1
21,97,3711,-1,0.65,0.95,21,3.711,1
21,98,2380,1,1.4,1.1,21,2.38,1
21,99,3740,-1,0,1.1,21,3.74,1
21,100,3615,1,0.5,0.65,21,3.615,0
21,101,3097,-1,1.55,2,21,3.097,1
21,102,6915,-1,0.65,1.1,21,6.915,1
21,103,2991,1,0.95,0.65,21,2.991,1
21,104,3508,1,1.4,1.55,21,3.508,0
21,105,2359,-1,1.1,0.8,21,2.359,0
21,106,2056,1,1.4,0.8,21,2.056,1
21,107,6856,-1,0.8,1.85,21,6.856,1
21,108,4119,1,0.8,0,21,4.119,1
21,109,4080,-1,1.1,1.1,21,4.08,1
21,110,5074,-1,2,1.25,21,5.074,0
21,111,2733,1,2,0.65,21,2.733,1
21,112,2874,-1,1.25,1.85,21,2.874,1
21,113,2256,-1,0,1.4,21,2.256,1
21,114,2089,1,0.65,0.35,21,2.089,1
21,115,2964,-1,0.35,1.55,21,2.964,1
21,116,5859,1,1.4,2,21,5.859,0
21,117,6849,1,1.1,0.5,21,6.849,1
21,118,2574,-1,0.95,1.25,21,2.574,1
21,119,4769,-1,0.8,0.65,21,4.769,0
22,0,2522,-1,0.5,0.5,22,2.522,1
22,1,2282,-1,0.2,0.65,22,2.282,1
22,2,2160,-1,0.35,0.8,22,2.16,1
22,3,7246,-1,0.65,0.65,22,7.246,1
22,4,2454,1,0.5,0.65,22,2.454,0
22,5,3395,1,0.8,1.25,22,3.395,0
22,6,5644,1,0.65,0.5,22,5.644,1
22,7,2330,-1,0.35,1.25,22,2.33,1
22,8,2693,1,0.35,0.65,22,2.693,0
22,9,3727,1,0.65,0.65,22,3.727,1
22,10,1622,1,0.8,0.35,22,1.622,1
22,11,1435,-1,0.2,0.5,22,1.435,1
22,12,1789,-1,0.65,0.65,22,1.789,1
22,13,3679,1,0.35,0.5,22,3.679,0
22,14,3930,-1,0.5,0.5,22,3.93,1
22,15,1888,-1,0.65,0.65,22,1.888,1
22,16,1471,-1,0.8,1.4,22,1.471,1
22,17,1628,-1,0.95,0.65,22,1.628,0
22,18,1419,-1,0,0.95,22,1.419,1
22,19,2803,-1,0.5,0.5,22,2.803,1
22,20,1681,-1,0.35,0.65,22,1.681,1
22,21,1507,-1,0.95,0.65,22,1.507,0
22,22,5238,-1,0.65,0.8,22,5.238,1
22,23,3939,1,0.2,0.35,22,3.939,0
22,24,3004,-1,0.05,0,22,3.004,0
22,25,1446,-1,0,0.35,22,1.446,1
22,26,1083,1,1.4,0.05,22,1.083,1
22,27,1805,1,1.4,1.25,22,1.805,1
22,28,1357,1,0.95,0.5,22,1.357,1
22,29,1913,-1,0.5,0,22,1.913,0
22,30,3194,1,0.35,0.5,22,3.194,0
22,31,1848,1,1.25,0.35,22,1.848,1
22,32,1005,1,0.65,0.5,22,1.005,1
22,33,1574,-1,0.95,0.5,22,1.574,0
22,34,4318,-1,0.2,0.65,22,4.318,1
22,35,4139,-1,0.35,0.2,22,4.139,0
22,36,1800,1,0.65,0.5,22,1.8,1
22,37,5213,-1,0.35,0.65,22,5.213,1
22,38,1587,-1,0.5,0.65,22,1.587,1
22,39,6055,1,0.8,0.5,22,6.055,1
22,40,1831,-1,0.05,1.4,22,1.831,1
22,41,2600,1,0.65,0.65,22,2.6,1
22,42,1148,-1,0.65,0.5,22,1.148,0
22,43,1286,-1,0.65,1.1,22,1.286,1
22,44,1062,1,0.5,0.5,22,1.062,1
22,45,1199,1,0.65,0.95,22,1.199,0
22,46,1901,-1,0.65,0.65,22,1.901,1
22,47,1290,-1,0.5,1.4,22,1.29,1
22,48,3219,1,0.65,0.2,22,3.219,1
22,49,1094,1,0.8,0.35,22,1.094,1
22,50,2801,1,0,0.05,22,2.801,0
22,51,2263,-1,0.5,0.65,22,2.263,1
22,52,1572,1,0.65,0.2,22,1.572,1
22,53,1632,-1,0.35,0.8,22,1.632,1
22,54,1938,1,0.65,0.65,22,1.938,1
22,55,1733,1,0.5,0.35,22,1.733,1
22,56,1162,-1,0.05,0.65,22,1.162,1
22,57,1510,-1,0.5,0.65,22,1.51,1
22,58,1373,1,0.35,0.2,22,1.373,1
22,59,885,1,1.1,0.35,22,0.885,1
22,60,3526,1,0.5,0.65,22,3.526,0
22,61,1143,-1,0.5,0.35,22,1.143,0
22,62,2409,1,0.35,0.5,22,2.409,0
22,63,985,1,0.65,0,22,0.985,1
22,64,1652,1,0.8,0.5,22,1.652,1
22,65,962,1,0.5,0.95,22,0.962,0
22,66,1299,1,0.2,0.35,22,1.299,0
22,67,934,1,1.4,0.8,22,0.934,1
22,68,1329,-1,0,0.35,22,1.329,1
22,69,920,-1,0.95,0.65,22,0.92,0
22,70,1958,-1,0.05,0.2,22,1.958,1
22,71,1646,1,0.5,0.35,22,1.646,1
22,72,1375,1,0.8,0,22,1.375,1
22,73,1771,1,0.5,0.5,22,1.771,1
22,74,1112,-1,0.8,0.8,22,1.112,1
22,75,1664,1,0.65,0,22,1.664,1
22,76,1876,-1,0.5,0.65,22,1.876,1
22,77,1231,-1,0.65,0.95,22,1.231,1
22,78,1343,1,0.65,0.5,22,1.343,1
22,79,6922,-1,0.5,0.8,22,6.922,1
22,80,2174,1,0.65,0.2,22,2.174,1
22,81,1263,1,0.65,0.65,22,1.263,1
22,82,1289,1,0.5,0.2,22,1.289,1
22,83,2404,-1,0.65,0.95,22,2.404,1
22,84,1050,-1,0,0.8,22,1.05,1
22,85,1335,-1,1.25,1.4,22,1.335,1
22,86,1860,1,0.8,0.65,22,1.86,1
22,87,1304,1,0.5,0.5,22,1.304,1
22,88,1548,1,0.5,0.8,22,1.548,0
22,89,1508,1,0.65,0.5,22,1.508,1
22,90,893,-1,0.5,0.5,22,0.893,1
22,91,2328,-1,0.5,0.65,22,2.328,1
22,92,1057,-1,0.65,0.35,22,1.057,0
22,93,1699,-1,0.35,1.25,22,1.699,1
22,94,1224,-1,0.5,0.5,22,1.224,1
22,95,1755,-1,0.5,0.35,22,1.755,0
22,96,1849,1,0.65,0.2,22,1.849,1
22,97,2111,-1,0,0.65,22,2.111,1
22,98,1476,1,0.65,0.65,22,1.476,1
22,99,2505,1,0.65,0.05,22,2.505,1
22,100,1412,-1,0,0.5,22,1.412,1
22,101,1908,-1,0.2,0.65,22,1.908,1
22,102,1592,1,0.35,0,22,1.592,1
22,103,1595,1,1.25,0.35,22,1.595,1
22,104,1554,1,0.2,0.05,22,1.554,1
22,105,1283,1,0.95,0,22,1.283,1
22,106,1167,1,0.8,0.8,22,1.167,1
22,107,1491,1,0.35,0.5,22,1.491,0
22,108,1481,-1,0.65,0.5,22,1.481,0
22,109,1941,-1,1.25,0.8,22,1.941,0
22,110,3231,1,0.65,0.35,22,3.231,1
22,111,1675,1,1.4,0.5,22,1.675,1
22,112,1432,1,0.2,0.65,22,1.432,0
22,113,932,1,0.5,0.95,22,0.932,0
22,114,2517,1,0.65,0.35,22,2.517,1
22,115,2345,-1,0.65,0.65,22,2.345,1
22,116,1316,-1,0,0.65,22,1.316,1
22,117,1743,1,1.1,0.65,22,1.743,1
22,118,982,-1,0.35,1.1,22,0.982,1
22,119,1552,1,0.35,0,22,1.552,1
23,0,5218,1,1.1,1.95,23,5.218,0
23,1,7248,1,0.8,0.2,23,7.248,1
23,2,2898,1,1.25,0.95,23,2.898,1
23,3,5471,-1,0.8,0.8,23,5.471,1
23,4,3447,1,1.4,0.8,23,3.447,1
23,5,3919,-1,0.2,1.4,23,3.919,1
23,6,7124,-1,0.5,0.95,23,7.124,1
23,7,5170,-1,1.1,1.85,23,5.17,1
23,8,4174,-1,0.2,0.95,23,4.174,1
23,9,6871,1,0.65,0.5,23,6.871,1
23,10,2764,-1,0.5,0.65,23,2.764,1
23,11,8195,1,0.65,1.1,23,8.195,0
23,12,8021,1,0.95,1.4,23,8.021,0
23,13,5963,1,1.1,0.8,23,5.963,1
23,14,2223,1,0.8,1.1,23,2.223,0
23,15,3695,-1,1.1,1.25,23,3.695,1
23,16,4676,-1,0.95,0.65,23,4.676,0
23,17,2982,1,1.25,0.8,23,2.982,1
23,18,2382,1,0.8,1.1,23,2.382,0
23,19,5604,1,0.65,0.65,23,5.604,1
23,20,5217,1,0.65,0.35,23,5.217,1
23,21,2846,1,1.95,0.8,23,2.846,1
23,22,4036,-1,2.45,0.95,23,4.036,0
23,23,4221,1,1.25,1.1,23,4.221,1
23,24,3372,1,1.55,0.8,23,3.372,1
23,25,3120,-1,0.5,0.95,23,3.12,1
23,26,2686,1,0.35,0.5,23,2.686,0
23,27,3649,1,1.1,0.95,23,3.649,1
23,28,5248,-1,1.1,0.95,23,5.248,0
23,29,4962,-1,0.5,1.1,23,4.962,1
23,30,3327,-1,1.1,0.35,23,3.327,0
23,31,2116,-1,0.5,1.55,23,2.116,1
23,32,4660,-1,0.8,0.95,23,4.66,1
23,33,2764,1,1.1,0.2,23,2.764,1
23,34,2778,1,1.55,1.25,23,2.778,1
23,35,4795,1,0.95,1.1,23,4.795,0
23,36,3606,1,0.95,0.5,23,3.606,1
23,37,3734,1,0.65,1.25,23,3.734,0
23,38,2946,1,1.55,0.2,23,2.946,1
23,39,7245,-1,0.5,1.1,23,7.245,1
23,40,5984,-1,2.45,0.65,23,5.984,0
23,41,3191,1,1.4,1.1,23,3.191,1
23,42,4182,-1,0.5,0.95,23,4.182,1
23,43,4102,1,1.1,0.65,23,4.102,1
23,44,2944,-1,1.1,1.25,23,2.944,1
23,45,2196,1,1.1,0.95,23,2.196,1
23,46,2229,1,1.1,0.35,23,2.229,1
23,47,5346,1,1.25,0.5,23,5.346,1
23,48,3151,1,1.85,0.95,23,3.151,1
23,49,3122,1,1.55,1.1,23,3.122,1
23,50,3064,-1,0.65,1.4,23,3.064,1
23,51,1859,-1,0.2,0.8,23,1.859,1
23,52,1543,-1,0.95,0.95,23,1.543,1
23,53,3109,-1,0.8,1.55,23,3.109,1
23,54,2125,1,1.1,1.4,23,2.125,0
23,55,2329,1,1.1,0.5,23,2.329,1
23,56,3862,1,1.25,1.1,23,3.862,1
23,57,3743,-1,1.25,1.55,23,3.743,1
23,58,2877,-1,1.4,0.95,23,2.877,0
23,59,1661,-1,0.8,1.25,23,1.661,1
23,60,5019,-1,0.95,1.1,23,5.019,1
23,61,1641,1,0.8,0.8,23,1.641,1
23,62,2485,1,0.65,0.95,23,2.485,0
23,63,1627,1,0.65,0.5,23,1.627,1
23,64,6459,-1,0.65,0.65,23,6.459,1
23,65,4819,1,0.5,0.65,23,4.819,0
23,66,2632,1,0.35,1.1,23,2.632,0
23,67,2573,-1,0.95,0.65,23,2.573,0
23,68,2297,-1,0.8,1.95,23,2.297,1
23,69,3442,-1,0.8,1.4,23,3.442,1
23,70,2434,-1,1.25,0.65,23,2.434,0
23,71,1706,1,1.95,1.1,23,1.706,1
23,72,2474,1,1.25,1.1,23,2.474,1
23,73,3481,-1,0.8,1.1,23,3.481,1
23,74,2160,1,1.25,0.95,23,2.16,1
23,75,3388,-1,0.8,1.1,23,3.388,1
23,76,3516,1,0.5,0.95,23,3.516,0
23,77,4310,-1,0.8,0.5,23,4.31,0
23,78,2441,1,0.8,0.8,23,2.441,1
23,79,4558,-1,0.2,1.1,23,4.558,1
23,80,5402,1,1.1,0.5,23,5.402,1
23,81,2695,1,1.55,0.5,23,2.695,1
23,82,1641,-1,0.2,1.55,23,1.641,1
23,83,2217,1,1.4,0.2,23,2.217,1
23,84,1880,1,0.95,0.8,23,1.88,1
23,85,5845,1,0.95,0.95,23,5.845,1
23,86,1736,-1,0.35,0.65,23,1.736,1
23,87,3100,-1,0.5,0.35,23,3.1,0
23,88,2029,-1,0.95,1.85,23,2.029,1
23,89,3566,-1,1.4,0.65,23,3.566,0
23,90,1376,-1,0.95,1.25,23,1.376,1
23,91,5800,1,1.1,0.8,23,5.8,1
23,92,1393,-1,1.1,1.4,23,1.393,1
23,93,2747,1,0.65,0.95,23,2.747,0
23,94,2328,-1,0.8,0.8,23,2.328,1
23,95,4244,-1,0.95,0.5,23,4.244,0
23,96,1941,-1,1.1,0.8,23,1.941,0
23,97,1812,1,0.95,0.5,23,1.812,1
23,98,2362,1,0.65,2.45,23,2.362,0
23,99,2368,1,0.5,0.8,23,2.368,0
23,100,8461,-1,1.1,0.95,23,8.461,0
23,101,11486,1,0.95,1.1,23,11.486,0
23,102,2883,-1,0.95,1.1,23,2.883,1
23,103,2545,1,0.95,0.2,23,2.545,1
23,104,9944,-1,1.25,1.55,23,9.944,1
23,105,124,1,0.95,0.65,23,0.124,1
23,106,1620,-1,1.1,1.55,23,1.62,1
23,107,2275,-1,0.5,1.25,23,2.275,1
23,108,8418,1,1.1,1.25,23,8.418,0
23,109,2355,1,0.8,0.2,23,2.355,1
23,110,5932,-1,1.4,1.1,23,5.932,0
23,111,3315,1,0.65,0.95,23,3.315,0
23,112,3190,-1,0.95,1.25,23,3.19,1
23,113,3406,-1,0.35,1.1,23,3.406,1
23,114,3691,1,1.55,1.25,23,3.691,1
23,115,2304,1,0.95,2.45,23,2.304,0
23,116,2936,-1,0.95,0.5,23,2.936,0
23,117,2587,1,1.85,1.1,23,2.587,1
23,118,6367,1,1.1,0.8,23,6.367,1
23,119,2198,-1,0.2,0.8,23,2.198,1
24,0,7125,1,0.95,1.4,24,7.125,0
24,1,3692,1,1.1,0,24,3.692,1
24,2,2541,1,2.6,0.5,24,2.541,1
24,3,7651,1,1.1,1.1,24,7.651,1
24,4,19210,1,1.1,1.1,24,19.21,1
24,5,5687,-1,0.35,0.95,24,5.687,1
24,6,2943,1,1.1,0,24,2.943,1
24,7,2096,-1,0.5,1.4,24,2.096,1
24,8,5345,-1,0.8,0.8,24,5.345,1
24,9,3886,1,1.1,0.95,24,3.886,1
24,10,1650,-1,0.5,0.95,24,1.65,1
24,11,2712,-1,0.95,1.4,24,2.712,1
24,12,13753,-1,0.8,1.25,24,13.753,1
24,13,3784,-1,0.95,1.1,24,3.784,1
24,14,5761,-1,1.1,0.35,24,5.761,0
24,15,6237,-1,0,0.65,24,6.237,1
24,16,4639,-1,0.8,1.1,24,4.639,1
24,17,1720,-1,0.5,0.95,24,1.72,1
24,18,2302,-1,1.4,1.85,24,2.302,1
24,19,1715,-1,0.35,0.8,24,1.715,1
24,20,1930,-1,0.5,0.95,24,1.93,1
24,21,4637,-1,0.8,0.8,24,4.637,1
24,22,9011,-1,1.25,1.7,24,9.011,1
24,23,6690,-1,2.15,1.1,24,6.69,0
24,24,2786,1,1.1,1.1,24,2.786,1
24,25,1546,-1,0.5,1.7,24,1.546,1
24,26,1446,-1,0,2.15,24,1.446,1
24,27,4059,-1,0.35,0.5,24,4.059,1
24,28,3822,1,0.8,1.25,24,3.822,0
24,29,2249,1,2.6,1.1,24,2.249,1
24,30,2312,1,1.25,0.8,24,2.312,1
24,31,2977,1,2.3,1.4,24,2.977,1
24,32,3406,1,0.95,0,24,3.406,1
24,33,4218,-1,0.5,0.5,24,4.218,1
24,34,9446,-1,1.55,0.95,24,9.446,0
24,35,5078,-1,0.8,2.45,24,5.078,1
24,36,1907,1,1.1,0.35,24,1.907,1
24,37,4781,1,1.1,0.65,24,4.781,1
24,38,1780,-1,1.25,1.1,24,1.78,0
24,39,4086,1,1.4,0.8,24,4.086,1
24,40,11648,1,0.8,1.1,24,11.648,0
24,41,2738,1,0.65,0.35,24,2.738,1
24,42,2758,1,0.35,1.1,24,2.758,0
24,43,2128,1,1.7,0.5,24,2.128,1
24,44,1577,1,2.15,0,24,1.577,1
24,45,2926,1,0.95,0.5,24,2.926,1
24,46,2426,1,2.45,0.8,24,2.426,1
24,47,1679,-1,1.25,0.8,24,1.679,0
24,48,2037,1,1.1,0.95,24,2.037,1
24,49,7953,1,2.45,1.2,24,7.953,1
24,50,2166,-1,0.5,2.6,24,2.166,1
24,51,7358,1,1.7,1.25,24,7.358,1
24,52,1493,1,1.25,0.5,24,1.493,1
24,53,2742,-1,1.1,2.6,24,2.742,1
24,54,4685,1,0.8,0.8,24,4.685,1
24,55,5293,-1,0.8,0.8,24,5.293,1
24,56,3689,-1,1.1,1.55,24,3.689,1
24,57,3207,1,0.35,0.65,24,3.207,0
24,58,1903,1,0.35,0.15,24,1.903,1
24,59,4321,-1,1.2,0.35,24,4.321,0
24,60,4077,-1,1.1,1.4,24,4.077,1
24,61,2117,1,0.65,0,24,2.117,1
24,62,1499,-1,1.25,1.55,24,1.499,1
24,63,1574,-1,0.35,1.1,24,1.574,1
24,64,2185,-1,0.35,2.3,24,2.185,1
24,65,7289,-1,1.25,0.8,24,7.289,0
24,66,2325,1,0.95,0.5,24,2.325,1
24,67,1743,-1,0,0.5,24,1.743,1
24,68,3476,-1,0.15,1.4,24,3.476,1
24,69,3173,-1,1.4,2.3,24,3.173,1
24,70,2271,1,0.5,0.35,24,2.271,1
24,71,14454,-1,1.25,1.25,24,14.454,1
24,72,3308,-1,0.65,1.85,24,3.308,1
24,73,2205,1,0.8,0.8,24,2.205,1
24,74,3257,1,1.55,0.35,24,3.257,1
24,75,2696,1,0.65,1.25,24,2.696,0
24,76,1907,-1,0.8,1.4,24,1.907,1
24,77,2105,-1,1.1,1.1,24,2.105,1
24,78,2088,-1,0.5,1.1,24,2.088,1
24,79,1936,-1,1.1,1.1,24,1.936,1
24,80,2569,1,0.95,0.35,24,2.569,1
24,81,4504,1,1.85,0.65,24,4.504,1
24,82,1320,-1,0,0.95,24,1.32,1
24,83,4091,1,0.95,1.55,24,4.091,0
24,84,1717,1,0.5,0,24,1.717,1
24,85,1728,1,0.95,0.5,24,1.728,1
24,86,6360,-1,1.25,1.25,24,6.36,1
24,87,2025,1,1.1,0.8,24,2.025,1
24,88,3491,-1,0.95,1.1,24,3.491,1
24,89,2211,-1,0.65,1.1,24,2.211,1
24,90,1312,1,1.1,0.5,24,1.312,1
24,91,2754,-1,0,1.1,24,2.754,1
24,92,1412,1,1.1,1.25,24,1.412,0
24,93,1810,-1,0.15,0.35,24,1.81,1
24,94,1339,-1,0.35,0.65,24,1.339,1
24,95,1746,1,1.25,0.65,24,1.746,1
24,96,2398,1,1.4,0.95,24,2.398,1
24,97,1839,-1,1.2,2.45,24,1.839,1
24,98,1559,1,1.55,1.25,24,1.559,1
24,99,2145,1,1.4,0.5,24,2.145,1
24,100,1416,1,0.8,0.35,24,1.416,1
24,101,1437,1,2.3,0.35,24,1.437,1
24,102,1478,1,1.4,1.1,24,1.478,1
24,103,2347,1,0.5,0.5,24,2.347,1
24,104,1699,1,1.1,0.35,24,1.699,1
24,105,1938,-1,0.65,0.35,24,1.938,0
24,106,1418,-1,0,1.1,24,1.418,1
24,107,1855,-1,0.5,1.25,24,1.855,1
24,108,5421,1,1.1,2.15,24,5.421,0
24,109,3163,1,0.35,1.2,24,3.163,0
24,110,2525,-1,0.35,1.55,24,2.525,1
24,111,3023,-1,0.35,1.1,24,3.023,1
24,112,2172,1,0.8,0.8,24,2.172,1
24,113,1573,1,1.1,0.8,24,1.573,1
24,114,1768,-1,0.8,1.25,24,1.768,1
24,115,2488,-1,1.4,0.95,24,2.488,0
24,116,2144,1,1.4,0.15,24,2.144,1
24,117,1847,1,1.55,1.1,24,1.847,1
24,118,1349,1,1.85,1.4,24,1.349,1
24,119,3356,-1,1.1,1.1,24,3.356,1
25,0,4097,-1,0.5,1.25,25,4.097,1
25,1,3147,1,1.1,0.2,25,3.147,1
25,2,3290,-1,1.1,0,25,3.29,0
25,3,1592,1,0.5,0,25,1.592,1
25,4,5927,-1,0.35,0.8,25,5.927,1
25,5,6716,-1,0.95,1.1,25,6.716,1
25,6,2573,-1,0.95,1.1,25,2.573,1
25,7,7630,-1,0.95,1.25,25,7.63,1
25,8,12133,-1,0.95,0.8,25,12.133,0
25,9,2272,-1,1.1,0.95,25,2.272,0
25,10,4203,1,0,0,25,4.203,1
25,11,3365,1,0.65,1.55,25,3.365,0
25,12,3154,-1,0.2,0.05,25,3.154,0
25,13,2079,-1,0,0.5,25,2.079,1
25,14,6907,-1,0.95,0.8,25,6.907,0
25,15,4428,-1,0.5,0.8,25,4.428,1
25,16,2504,1,0.95,1.4,25,2.504,0
