parcode,trial,rt,choice,item_left,item_right,valid
0,0,2009,-1,1.1,0.95,
0,1,3371,-1,2,1.7,
0,2,1700,1,1.1,2.3,
0,3,7466,1,1.25,1.4,
0,4,1889,1,2,2.3,
0,5,2227,1,1.7,1.85,
0,6,4259,-1,1.85,0.65,
0,7,3505,-1,1.55,0.8,
0,8,2548,-1,1.55,1.1,
0,9,3226,1,1.1,2,
0,10,4604,-1,1.85,1.1,
0,11,6333,-1,0.95,2,
0,12,5716,-1,0.95,0.8,
0,13,3562,-1,2,1.1,
0,14,2447,-1,1.85,1.1,
0,15,2120,1,1.25,1.85,
0,16,6932,1,2,2,
0,17,4274,1,1.25,1.7,
0,18,6854,-1,1.7,1.4,
0,19,6698,-1,1.1,1.1,
0,20,2913,-1,1.1,0.95,
0,21,4513,-1,1.7,1.55,
0,22,2110,1,1.85,2,
0,23,3385,-1,1.7,1.4,
0,24,2456,1,1.4,2,
0,25,2136,-1,1.85,1.7,
0,26,7010,1,1.1,1.55,
0,27,4784,-1,0.95,0.65,
0,28,2697,1,1.1,1.55,
0,29,4654,1,1.25,1.55,
0,30,1916,1,1.55,2.3,
0,31,2033,-1,1.7,1.25,
0,32,1441,1,0.95,1.85,
0,33,3579,1,0.65,1.25,
0,34,7377,1,1.7,2,
0,35,2921,-1,2.3,1.7,
0,36,6398,-1,1.55,2.3,
0,37,2919,1,0.65,1.7,
0,38,4737,-1,1.55,1.7,
0,39,3459,-1,1.7,1.1,
0,40,3454,1,1.85,1.85,
0,41,2478,1,1.7,1.55,
0,42,1728,1,1.1,1.85,
0,43,2014,-1,1.85,1.7,
0,44,519,1,0.95,1.1,
0,45,5492,1,1.1,1.25,
0,46,3216,1,1.1,1.7,
0,47,2185,-1,1.4,1.1,
0,48,1467,-1,2.3,2,
0,49,1707,-1,1.7,0.65,
0,50,1472,1,1.1,1.55,
0,51,2425,-1,2,1.1,
0,52,5621,1,2.3,1.55,
0,53,3216,1,0.95,1.55,
0,54,3167,1,0.95,2.3,
0,55,1939,-1,1.1,0.35,
0,56,2066,-1,1.55,1.4,
0,57,1561,1,1.25,2,
0,58,2037,-1,1.85,1.55,
0,59,3620,1,1.85,2,
0,60,1235,1,0.35,1.85,
0,61,3726,1,1.4,1.7,
0,62,1764,1,1.25,1.1,
0,63,4016,-1,2,1.4,
0,64,2365,1,1.1,2,
0,65,1583,1,1.55,1.55,
0,66,5406,-1,1.55,1.25,
0,67,2418,1,1.25,2,
0,68,5198,-1,1.4,1.25,
0,69,4101,1,1.1,1.85,
0,70,3167,1,1.55,2,
0,71,1675,-1,1.85,0.95,
0,72,1655,1,1.7,2,
0,73,1870,-1,1.55,1.1,
0,74,2637,-1,1.55,1.1,
0,75,3613,1,2,2,
0,76,1854,-1,2.3,1.55,
0,77,1999,-1,2,1.55,
0,78,1979,-1,2,1.1,
0,79,1987,-1,2.3,1.1,
0,80,2166,-1,1.85,1.1,
0,81,2263,-1,2,1.55,
0,82,1491,1,0.8,1.55,
0,83,1697,-1,1.1,1.25,
0,84,2250,1,1.55,1.7,
0,85,2017,-1,1.7,1.25,
0,86,2098,1,1.7,1.85,
0,87,1744,-1,2,1.25,
0,88,2002,-1,1.85,1.85,
0,89,2099,-1,2,1.1,
0,90,4340,-1,1.4,1.7,
0,91,2085,1,1.55,1.85,
0,92,2755,1,1.55,2,
0,93,2265,-1,2,1.85,
0,94,1866,1,1.25,1.7,
0,95,2166,-1,1.85,0.35,
0,96,4828,1,1.25,1.1,
0,97,2376,-1,2,0.95,
0,98,2106,-1,2,1.85,
0,99,2328,-1,1.85,1.25,
0,100,4574,-1,2,1.7,
0,101,1708,1,1.1,1.4,
0,102,1739,1,1.1,1.85,
0,103,1466,1,0.35,1.1,
0,104,4432,-1,1.7,2.3,
0,105,1759,1,1.1,2,
0,106,1533,1,1.1,2,
0,107,1556,-1,1.25,0.65,
0,108,1545,-1,1.55,1.55,
0,109,1291,1,1.7,2,
0,110,1544,1,1.4,1.55,
0,111,4190,1,0.65,0.95,
0,112,1712,1,0.65,1.85,
0,113,2958,1,1.55,0.95,
0,114,1618,-1,2.3,0.95,
0,115,1474,-1,2,1.7,
0,116,1715,-1,2,1.25,
0,117,1819,1,1.1,1.1,
0,118,1454,1,0.95,1.1,
0,119,3480,-1,0.8,0.95,
1,0,3113,1,0.5,0.8,
1,1,4273,1,0.05,0.5,
1,2,2400,-1,0.5,0.2,
1,3,2710,1,0.35,0.5,
1,4,3446,-1,0.5,0.2,
1,5,3993,-1,0.65,0.5,
1,6,2389,-1,0.65,0.05,
1,7,1404,-1,0.2,0,
1,8,3249,1,0.05,0.2,
1,9,1822,-1,0.35,0,
1,10,1994,-1,0.2,0,
1,11,2700,-1,0.65,0.2,
1,12,1886,-1,0.5,0,
1,13,3326,1,0.65,0.65,
1,14,3299,1,0.2,0.8,
1,15,2521,1,0,0.65,
1,16,2952,-1,0.05,0.5,
1,17,2415,-1,0.35,0.2,
1,18,3498,1,0.2,0.2,
1,19,2270,1,0,0.2,
1,20,2513,1,0.35,0.5,
1,21,2738,1,0.65,0.35,
1,22,3314,-1,0.35,0.5,
1,23,3086,1,0.05,0.2,
1,24,2393,1,0.5,0.5,
1,25,2560,1,0.05,0.2,
1,26,3130,-1,0.65,0.35,
1,27,4404,-1,0.65,0.5,
1,28,1777,-1,0.65,0.2,
1,29,2386,-1,0.5,0.35,
1,30,2762,-1,0.5,0.35,
1,31,1868,-1,0.65,0.2,
1,32,2631,-1,0.65,0.65,
1,33,3073,-1,0.65,0.5,
1,34,2059,1,0,0.35,
1,35,1611,1,0.2,0.65,
1,36,1721,-1,0.5,0,
1,37,2535,1,0.2,0,
1,38,2177,1,0.65,0.5,
1,39,2577,1,0,0.65,
1,40,2362,1,0.2,0.65,
1,41,1504,1,0,0.2,
1,42,1769,-1,0.5,0.05,
1,43,1998,1,0.35,0.05,
1,44,1194,1,0.35,0.5,
1,45,1135,1,0.05,0.65,
1,46,1716,-1,0.65,0.5,
1,47,1320,-1,0.5,0.65,
1,48,1241,1,0.2,0.5,
1,49,1278,1,0.8,0.5,
1,50,1160,-1,0.35,0.2,
1,51,1596,-1,0.2,0.35,
1,52,1158,-1,0.65,0.2,
1,53,1504,1,0.5,0.5,
1,54,1069,1,0,0.5,
1,55,1009,1,0.2,0.65,
1,56,1124,1,0.65,0.65,
1,57,1174,-1,0.5,0.2,
1,58,1020,-1,0.65,0,
1,59,1150,1,0,0.35,
1,60,1254,-1,0.65,0.5,
1,61,1898,-1,0.5,0,
1,62,1184,1,0.2,0.35,
1,63,1012,-1,0.8,0,
1,64,2056,-1,0.35,0.65,
1,65,1025,-1,0.2,0,
1,66,1123,1,0.35,0.5,
1,67,1224,1,0,0.2,
1,68,1927,-1,0.5,0.2,
1,69,1103,-1,0.8,0.5,
1,70,1177,1,0,0.5,
1,71,1173,1,0.5,0.65,
1,72,1127,1,0.35,0.35,
1,73,1540,1,0.2,0.05,
1,74,1574,1,0.35,0.5,
1,75,1212,-1,0.2,0.05,
1,76,1247,1,0.2,0.35,
1,77,1096,1,0.2,0.65,
1,78,1163,-1,0.65,0.2,
1,79,1068,-1,0.35,0,
1,80,1829,1,0.5,0.8,
1,81,1958,1,0.05,0.5,
1,82,1335,-1,0.5,0.2,
1,83,1560,-1,0.35,0.5,
1,84,1322,-1,0.5,0.2,
1,85,1545,-1,0.65,0.5,
1,86,1385,-1,0.65,0.05,
1,87,2884,-1,0.2,0,
1,88,1358,1,0.05,0.2,
1,89,1663,-1,0.35,0,
1,90,1382,-1,0.2,0,
1,91,3400,-1,0.65,0.2,
1,92,1058,-1,0.5,0,
1,93,882,1,0.65,0.65,
1,94,1057,1,0.2,0.8,
1,95,1229,1,0,0.65,
1,96,1375,-1,0.05,0.5,
1,97,819,-1,0.35,0.2,
1,98,1925,1,0.2,0.2,
1,99,1062,1,0,0.2,
1,100,1320,1,0.35,0.5,
1,101,1068,1,0.65,0.35,
1,102,1506,-1,0.35,0.5,
1,103,883,1,0.05,0.2,
1,104,959,1,0.5,0.5,
1,105,1317,1,0.05,0.2,
1,106,1176,-1,0.65,0.35,
1,107,1196,-1,0.65,0.5,
1,108,1045,-1,0.65,0.2,
1,109,1060,-1,0.5,0.35,
1,110,1112,-1,0.5,0.35,
1,111,1471,-1,0.65,0.2,
1,112,1188,-1,0.65,0.65,
1,113,1411,-1,0.65,0.5,
1,114,1345,1,0,0.35,
1,115,992,1,0.2,0.65,
1,116,816,-1,0.5,0,
1,117,1740,1,0.2,0,
1,118,1032,1,0.65,0.5,
1,119,1124,1,0,0.65,
2,0,4138,-1,0.95,0,
2,1,1615,-1,1.1,0,
2,2,1521,-1,0.95,0.5,
2,3,1833,-1,2.3,0,
2,4,1921,1,0.5,2.6,
2,5,1472,-1,2,0.05,
2,6,3630,-1,1.1,0.2,
2,7,2730,-1,1.25,0.35,
2,8,5770,-1,2.75,2.15,
2,9,2833,-1,0.05,0.2,
2,10,1616,-1,0.65,0,
2,11,1776,1,0,1.4,
2,12,1554,1,0.2,1.95,
2,13,2881,-1,0,0,
2,14,2592,-1,0.65,0,
2,15,1966,1,0.95,2.3,
2,16,4961,1,1.25,0.35,
2,17,4289,1,0,0,
2,18,2382,1,2,3,
2,19,1627,-1,3,0,
2,20,1506,1,0,2,
2,21,3071,1,0,2.75,
2,22,1683,1,0.5,2.9,
2,23,1869,-1,2.3,0.95,
2,24,1236,-1,0.35,0.05,
2,25,5758,1,3,2.3,
2,26,3641,-1,1.1,1.25,
2,27,1984,-1,0,0,
2,28,2387,1,0.35,3,
2,29,1672,1,0.95,1.95,
2,30,3178,-1,0.35,1.1,
2,31,4034,-1,1.7,1.25,
2,32,2266,1,0.2,1.25,
2,33,9110,1,2.75,2.15,
2,34,1914,-1,0.95,0.65,
2,35,2310,1,2.6,2,
2,36,3482,-1,0.35,0.5,
2,37,2185,1,0,2.75,
2,38,1643,1,0.5,0.65,
2,39,6848,1,1.1,2.3,
2,40,3014,-1,1.95,0.95,
2,41,1248,-1,1.95,0.2,
2,42,1962,-1,2,0,
2,43,1814,1,0.35,2.85,
2,44,2794,1,0,0,
2,45,4583,-1,0.35,0.5,
2,46,5363,1,0.2,0.2,
2,47,3832,1,0.35,1.25,
2,48,1041,-1,2.15,0,
2,49,2045,1,0.05,2.75,
2,50,1479,-1,2.6,0.5,
2,51,1750,-1,0.35,1.25,
2,52,2726,-1,2.9,1.1,
2,53,2387,1,0.2,0.05,
2,54,1629,1,0.5,2.6,
2,55,3360,-1,2.75,0,
2,56,1625,-1,2,2.6,
2,57,1991,1,0,0.65,
2,58,5695,1,0,0,
2,59,1470,1,0.2,1.1,
2,60,1108,1,0,2.3,
2,61,1263,1,0,0.5,
2,62,1223,1,0.65,2.3,
2,63,944,1,0,2.15,
2,64,966,-1,3,0.35,
2,65,1471,-1,2.9,0.5,
2,66,1325,-1,2.3,0.95,
2,67,2047,-1,0.5,1.7,
2,68,1318,1,0,0.65,
2,69,1410,-1,2.6,2.75,
2,70,1109,-1,1.1,0.65,
2,71,2158,1,0,0.35,
2,72,3687,-1,1.25,1.7,
2,73,2117,-1,1.1,1.4,
2,74,1499,-1,2.15,2.75,
2,75,871,1,1.25,2.15,
2,76,1230,-1,2.15,0.5,
2,77,1466,-1,1.25,0.2,
2,78,1764,1,2.3,2.85,
2,79,2222,1,0,0.35,
2,80,1351,-1,0.35,0,
2,81,1418,1,0.5,0.95,
2,82,1152,1,0,1.1,
2,83,2764,1,1.25,1.1,
2,84,2555,1,2.75,2.6,
2,85,1966,1,0,3,
2,86,1839,1,0.65,1.1,
2,87,1619,-1,2.15,1.25,
2,88,4705,1,2.3,3,
2,89,1404,-1,0.65,0.5,
2,90,2197,-1,2.3,0,
2,91,2248,-1,2.85,2.3,
2,92,2783,-1,2.3,1.1,
2,93,1276,1,0.5,0.35,
2,94,1925,-1,0.35,0,
2,95,1836,-1,3,2,
2,96,2134,-1,2.3,0.65,
2,97,1352,1,0,2.15,
2,98,1285,-1,2.85,0.35,
2,99,1344,1,0,0.95,
2,100,1834,1,1.7,0.5,
2,101,2169,1,1.1,0.35,
2,102,1192,-1,2.15,0,
2,103,1448,1,1.1,2.9,
2,104,1618,1,0.05,2,
2,105,2337,-1,0.2,0.2,
2,106,1817,-1,2.75,0,
2,107,953,-1,2.75,0.05,
2,108,1666,1,0.65,0.95,
2,109,1120,-1,2.6,0.5,
2,110,1819,1,0.95,2.3,
2,111,1672,1,1.4,1.1,
2,112,4290,-1,0.5,0,
2,113,1477,1,2.15,2.75,
2,114,1372,1,0,2.3,
2,115,1507,1,0.5,2.15,
2,116,2567,-1,1.4,0,
2,117,1513,1,0,0,
2,118,1648,1,0.05,0.35,
2,119,1125,1,0.5,0.35,
3,0,3916,-1,0,0,
3,1,2427,-1,2.45,0.65,
3,2,3746,1,0.05,0.35,
3,3,3621,-1,1.1,0.35,
3,4,2167,1,1.55,0.95,
3,5,2378,-1,2.45,1.55,
3,6,3483,-1,1.1,0.65,
3,7,2759,1,0,0.95,
3,8,11236,1,0.05,0.65,
3,9,2620,1,0.05,0.95,
3,10,5035,-1,0.95,1.1,
3,11,6939,-1,1.4,1.25,
3,12,2210,1,0,0.95,
3,13,1773,1,0.05,1.4,
3,14,1790,1,0,0.65,
3,15,4010,1,1.55,0.2,
3,16,2599,1,0,1.25,
3,17,8879,-1,2.45,0.65,
3,18,2397,-1,1.4,0.65,
3,19,2316,-1,0.65,0.05,
3,20,1897,-1,1.7,0.65,
3,21,7320,1,0.5,0.65,
3,22,3510,-1,0.05,0,
3,23,2683,1,0.05,1.55,
3,24,1943,1,0.05,0.65,
3,25,1684,-1,0.65,0.2,
3,26,3811,1,0.95,1.4,
3,27,1739,1,0.5,1.25,
3,28,2891,-1,0.8,0.35,
3,29,4217,1,0.65,2.3,
3,30,6103,1,0.95,0.95,
3,31,5579,-1,0.8,0.8,
3,32,4646,1,0.8,0.35,
3,33,4253,1,0.05,0.95,
3,34,2616,1,1.25,0.95,
3,35,5075,-1,0.95,0.8,
3,36,2093,-1,0.65,0.8,
3,37,4899,1,1.1,1.55,
3,38,4563,1,1.1,0.95,
3,39,2354,-1,0.95,0,
3,40,3952,1,0,0.05,
3,41,1354,-1,1.25,0.5,
3,42,1708,1,0.95,1.1,
3,43,1662,-1,0.95,1.25,
3,44,3300,-1,1.4,0.95,
3,45,2187,1,0.35,1.55,
3,46,1537,-1,0.95,0,
3,47,4601,1,0.05,0.95,
3,48,1768,-1,0,0.05,
3,49,2069,-1,1.7,1.4,
3,50,3884,1,0,0,
3,51,1877,1,0.05,1.1,
3,52,1563,-1,1.4,0,
3,53,1706,1,0,1.1,
3,54,4268,-1,0.95,0.95,
3,55,1762,1,0.65,1.7,
3,56,1773,1,0.35,1.1,
3,57,7000,-1,0.95,0.05,
3,58,3982,-1,0.65,0,
3,59,1869,-1,0.95,0,
3,60,2105,-1,0.95,0,
3,61,1507,-1,0.95,0.05,
3,62,2742,1,0.35,0.8,
3,63,2430,1,0.05,0.65,
3,64,2550,1,0,0.5,
3,65,2499,1,1.1,0.5,
3,66,3249,-1,0.95,1.1,
3,67,2161,1,0,1.55,
3,68,2270,1,0.8,0.95,
3,69,2322,-1,0.65,0,
3,70,1885,1,0,0.05,
3,71,2328,1,0.05,0.95,
3,72,1789,1,0,0.95,
3,73,3082,1,1.1,0.95,
3,74,2710,1,0.95,2.3,
3,75,3318,-1,2.45,1.1,
3,76,1596,-1,1.55,0.05,
3,77,2020,1,0.95,1.55,
3,78,1498,-1,1.25,0,
3,79,3854,1,0.35,0.8,
3,80,3897,-1,0.95,0.8,
3,81,1515,-1,0.95,1.55,
3,82,2095,1,0.8,0.65,
3,83,1847,-1,1.55,0.95,
3,84,3787,1,0.65,0.5,
3,85,3488,-1,1.55,1.1,
3,86,4082,1,0.8,0.95,
3,87,2037,1,0.2,0.65,
3,88,1874,1,0.8,0.8,
3,89,1663,1,0,1.4,
3,90,5986,-1,0.8,0.35,
3,91,7087,1,1.25,1.4,
3,92,1695,1,0,0.65,
3,93,1739,1,0.65,1.4,
3,94,3157,-1,2.3,0.65,
3,95,1509,-1,1.1,0,
3,96,4811,1,0.65,2.45,
3,97,1924,-1,0.95,0.05,
3,98,1294,-1,0.65,0.05,
3,99,1835,-1,0.2,1.55,
3,100,2191,1,0,0.95,
3,101,1573,1,1.4,1.7,
3,102,2013,-1,2.3,0.95,
3,103,1253,-1,1.55,0.35,
3,104,2332,-1,0.5,0,
3,105,3469,1,1.55,2.45,
3,106,7005,-1,0.35,0.8,
3,107,4749,-1,0.95,0.05,
3,108,2096,1,1.1,2.45,
3,109,1272,-1,1.55,0,
3,110,3300,-1,0.35,0.05,
3,111,1336,-1,1.1,0.05,
3,112,1260,-1,1.4,0.05,
3,113,1340,-1,0.05,0,
3,114,3912,-1,0.65,0.05,
3,115,1344,-1,0.05,0,
3,116,3005,1,0.65,1.1,
3,117,1676,-1,1.1,0.95,
3,118,2666,-1,0.5,1.1,
3,119,1883,1,0.65,2.45,
4,0,1944,-1,0.05,0,
4,1,3591,1,0,0,
4,2,1669,-1,0.8,0.65,
4,3,1473,-1,0.6,0,
4,4,1379,1,0,0.65,
4,5,2554,1,0,0,
4,6,1539,-1,0.5,0,
4,7,1370,1,0,0,
4,8,1375,1,0,0.95,
4,9,3063,1,0.05,0.2,
4,10,1369,1,0,0.05,
4,11,1598,1,0,0.95,
4,12,1833,-1,0,0,
4,13,1252,1,0.35,0.8,
4,14,1773,-1,0.65,0,
4,15,1471,1,0,0.8,
4,16,3207,-1,0.5,0,
4,17,1903,-1,0,0,
4,18,2550,-1,1.1,0.05,
4,19,1988,-1,0.2,0,
4,20,1531,-1,1.1,0,
4,21,4111,1,0.5,0.65,
4,22,5355,1,0,0,
4,23,1387,-1,1.1,0,
4,24,1688,-1,0.6,0.35,
4,25,3569,1,0,0.05,
4,26,1619,1,0.5,1.1,
4,27,4123,1,0,0,
4,28,1834,1,0,0,
4,29,1416,1,0.05,0.2,
4,30,1288,1,0,0.8,
4,31,1361,1,0,1.1,
4,32,1465,1,0.05,0,
4,33,1650,-1,0.05,0,
4,34,2292,1,0,0,
4,35,1348,1,0,0.5,
4,36,1407,-1,0.8,0.5,
4,37,1486,1,0,0.8,
4,38,1610,1,0.5,0.95,
4,39,2680,-1,0,0,
4,40,2420,-1,0,0,
4,41,2161,-1,0,0,
4,42,1342,-1,0.8,0,
4,43,1253,1,0,0,
4,44,1262,-1,0.8,0,
4,45,1895,1,0,0,
4,46,2956,-1,0.65,0.5,
4,47,1518,-1,0.8,0,
4,48,1020,1,0,1.1,
4,49,1407,-1,0,0,
4,50,2155,-1,0.5,0,
4,51,1575,1,0,0.65,
4,52,1830,-1,0,0,
4,53,1061,-1,0,0,
4,54,1095,1,0.5,0.8,
4,55,1536,1,0,0,
4,56,1046,-1,1.1,0,
4,57,1951,-1,0.8,0.35,
4,58,1306,-1,0,0,
4,59,1983,1,0,0.2,
4,60,1847,-1,0,0.2,
4,61,1761,1,0.05,0.95,
4,62,2454,-1,0.05,0,
4,63,2720,1,0.35,0,
4,64,1076,-1,0.2,0.05,
4,65,1871,1,0,0.8,
4,66,926,-1,0.65,0.05,
4,67,1366,-1,0.05,0,
4,68,1282,1,0,1.1,
4,69,1485,1,0,0.05,
4,70,2086,-1,0.8,0.05,
4,71,1351,-1,0.65,0,
4,72,1516,-1,0,0.5,
4,73,1085,1,0,0,
4,74,1580,-1,0.35,0,
4,75,1235,-1,0.8,0,
4,76,1850,1,0.8,0.8,
4,77,1398,1,0.05,1.1,
4,78,1486,1,0,0.5,
4,79,4333,-1,0,0,
4,80,2015,-1,0.5,0,
4,81,1236,-1,0.95,0,
4,82,1346,1,0,0,
4,83,1235,1,0.65,0.8,
4,84,1382,1,0,0,
4,85,1491,1,0,0,
4,86,2413,-1,0.65,0,
4,87,1509,-1,0.8,0,
4,88,1114,1,0,0.5,
4,89,1071,1,0,0.6,
4,90,1696,-1,0,0,
4,91,2318,1,0.2,0.05,
4,92,1504,-1,1.1,0,
4,93,1920,-1,1.1,0.5,
4,94,1381,-1,0.95,0,
4,95,4618,1,0,0.05,
4,96,1067,1,0.35,0.6,
4,97,1600,-1,0,0,
4,98,903,1,0,0,
4,99,1515,1,0,0.05,
4,100,1737,-1,0.2,0,
4,101,943,1,0,1.1,
4,102,1317,1,0.05,0.65,
4,103,1197,1,0,0.8,
4,104,2430,1,0,0,
4,105,1257,-1,0.8,0,
4,106,2005,1,0,0.35,
4,107,1129,1,0,0.8,
4,108,1162,1,0,0.65,
4,109,1801,-1,0,0,
4,110,2430,1,0,0,
4,111,1379,1,0.05,0.8,
4,112,1529,-1,0.95,0.5,
4,113,2327,-1,0,0,
4,114,1531,-1,0,0.35,
4,115,1360,-1,0,0.05,
4,116,1619,-1,0.05,0,
4,117,1415,-1,0,0,
4,118,1552,-1,0.8,0.8,
4,119,1627,-1,0.95,0.05,
5,0,2028,-1,1.4,0.95,
5,1,2197,1,0.5,0.65,
5,2,1864,1,0.5,0.8,
5,3,2066,1,0.35,0.65,
5,4,1702,1,0.35,0.95,
5,5,2343,1,0.2,0.95,
5,6,3469,-1,1.1,0.8,
5,7,4105,-1,0.8,0.5,
5,8,2482,1,0,0.5,
5,9,3178,1,0.35,0.95,
5,10,1763,-1,1.1,0.65,
5,11,2708,1,0.95,0.95,
5,12,3466,-1,1.4,0,
5,13,1868,-1,0.65,0.65,
5,14,2141,-1,0.65,0,
5,15,1801,1,0.5,0.65,
5,16,4713,1,0.95,0.65,
5,17,1717,-1,1.1,0.2,
5,18,1870,-1,0.65,0.8,
5,19,1629,-1,1.1,0.5,
5,20,2029,1,0.5,0.8,
5,21,3458,1,0.95,1.1,
5,22,2113,1,0.95,0.8,
5,23,2422,1,0.65,0.8,
5,24,2205,-1,0.65,1.1,
5,25,2222,-1,0.8,0.65,
5,26,3793,1,0.5,0.65,
5,27,2187,1,0.8,1.1,
5,28,2330,-1,0.95,0.35,
5,29,3852,1,0.95,0.65,
5,30,3695,-1,0.65,0.95,
5,31,3260,-1,0.8,0.8,
5,32,24903,-1,0.2,0.8,
5,33,4399,1,0.65,0.8,
5,34,3612,1,0,0.5,
5,35,2359,1,0.8,0.95,
5,36,4328,1,0.8,1.1,
5,37,1866,1,0.5,0.5,
5,38,2742,-1,1.25,1.1,
5,39,2290,1,0.95,0.5,
5,40,4077,1,0.95,0.95,
5,41,1560,-1,1.1,0.95,
5,42,2605,-1,0.5,0,
5,43,1836,1,0.2,0.35,
5,44,1968,-1,1.1,0.8,
5,45,3258,-1,0.65,0.5,
5,46,3518,-1,0.95,0.8,
5,47,1889,-1,0.95,0.35,
5,48,1837,-1,0.65,0.5,
5,49,2012,1,0.8,0.65,
5,50,2183,-1,0.5,0,
5,51,1414,1,0.35,1.1,
5,52,1778,1,0,1.1,
5,53,2422,-1,1.25,0.8,
5,54,1579,-1,1.1,0.95,
5,55,2238,-1,0.5,0.95,
5,56,1383,1,0.8,0.95,
5,57,2886,-1,0.5,0.8,
5,58,1683,1,0.95,0.65,
5,59,3159,-1,0.65,0.35,
5,60,1700,1,0.35,0.5,
5,61,1632,-1,0.8,0.65,
5,62,3465,-1,0.8,0.5,
5,63,2207,-1,0.95,0.35,
5,64,2594,1,0.8,0.8,
5,65,1828,-1,1.1,0.5,
5,66,1993,-1,0.8,0.95,
5,67,2343,-1,0.65,0.65,
5,68,1632,1,0.65,1.1,
5,69,1456,-1,0.65,0.95,
5,70,2478,-1,0.65,0.5,
5,71,1991,1,0.2,1.1,
5,72,1905,1,0.35,0.65,
5,73,2195,-1,1.1,0.65,
5,74,1754,-1,0.95,0,
5,75,2658,1,0.65,0.8,
5,76,1755,1,0.95,1.4,
5,77,2863,1,0.95,1.1,
5,78,1514,-1,0.65,0.95,
5,79,2971,1,0.5,0.8,
5,80,1826,-1,1.1,0.95,
5,81,1908,-1,1.1,0.8,
5,82,2450,-1,0,0.65,
5,83,2532,-1,0.8,0.5,
5,84,1653,-1,0.5,0.35,
5,85,2581,-1,0.5,0.8,
5,86,1539,-1,1.1,0.95,
5,87,1602,1,0.65,0.65,
5,88,2941,1,1.1,0.65,
5,89,2425,-1,0.65,0.65,
5,90,1935,-1,0.95,0.35,
5,91,1552,1,0.65,0.8,
5,92,2729,1,0.95,1.1,
5,93,1878,1,0.8,0.65,
5,94,1452,1,0.5,1.1,
5,95,1693,1,0.8,0.5,
5,96,1529,1,0.8,0.2,
5,97,2201,1,0.8,0.8,
5,98,3317,-1,0.35,0.2,
5,99,1205,-1,1.1,0,
5,100,1749,1,0.8,0.5,
5,101,1554,1,1.1,1.25,
5,102,1827,-1,0.95,0.2,
5,103,1525,1,0.65,1.1,
5,104,1791,1,0.35,0.95,
5,105,1359,-1,0.65,0.35,
5,106,2219,-1,0.8,0.65,
5,107,1546,1,0.35,0.65,
5,108,1451,1,0,0.95,
5,109,1997,1,0.95,0.8,
5,110,1996,-1,0.65,0.35,
5,111,1720,1,0,1.4,
5,112,1503,-1,0.5,0.5,
5,113,2481,1,0.8,0.8,
5,114,1808,1,0.8,1.25,
5,115,1768,1,0.5,1.1,
5,116,2272,1,0.35,0.95,
5,117,1588,-1,1.1,0.35,
5,118,1521,1,0.95,1.1,
5,119,1654,1,0.8,1.1,
6,0,1928,-1,0.95,1.4,
6,1,4194,1,0.65,0.8,
6,2,2641,1,0.8,0.8,
6,3,2684,-1,0.95,0.65,
6,4,1506,1,0.65,0.95,
6,5,2147,-1,1.4,0.65,
6,6,2007,-1,0.95,0,
6,7,1439,-1,0.95,0.8,
6,8,2377,-1,0.65,0.95,
6,9,1529,-1,0.8,0.5,
6,10,1766,-1,0.65,0.65,
6,11,4347,-1,0.65,0.65,
6,12,1309,-1,0.95,0.95,
6,13,1520,-1,0.95,0.8,
6,14,2229,1,0.65,0.65,
6,15,4567,1,0.95,0.5,
6,16,1624,1,0.95,0.95,
6,17,2488,1,0.95,1.1,
6,18,1411,-1,0.65,0.8,
6,19,1473,1,0,0.95,
6,20,2715,1,0.65,0.35,
6,21,1698,-1,0.65,0.95,
6,22,1593,-1,0.95,0.95,
6,23,2855,1,0.8,0.8,
6,24,5320,-1,0.5,0.8,
6,25,1752,-1,0.65,0.8,
6,26,1509,1,0.95,0.8,
6,27,1701,1,0.5,1.4,
6,28,1350,1,0.95,0.8,
6,29,1891,-1,0.65,0.95,
6,30,2255,-1,1.1,0.65,
6,31,9549,-1,0.8,0.8,
6,32,759,1,0.65,0.65,
6,33,1619,1,0.8,0.95,
6,34,1815,1,0.35,1.25,
6,35,2159,-1,0,0.8,
6,36,1611,1,0.8,0.95,
6,37,4682,1,0.8,0.95,
6,38,1289,1,0.8,0.65,
6,39,2833,1,0.65,0.95,
6,40,1394,1,0,0.5,
6,41,1906,1,0.8,0.65,
6,42,2107,-1,0.95,0.8,
6,43,3027,1,0.95,1.4,
6,44,2600,1,0.95,0.8,
6,45,1417,-1,0.95,0.65,
6,46,2295,1,0.65,0.95,
6,47,3582,-1,0.65,0.95,
6,48,1190,1,0.8,0.95,
6,49,1701,-1,0.65,1.4,
6,50,3387,-1,0.65,0.65,
6,51,1950,-1,0.95,0.95,
6,52,4977,-1,0.95,0.8,
6,53,1650,-1,0.95,0.35,
6,54,1315,1,0.8,0.95,
6,55,2396,-1,0.8,0.8,
6,56,2956,-1,0.95,0.65,
6,57,2401,-1,0.8,0.8,
6,58,1843,1,1.4,0.95,
6,59,971,-1,0,0.65,
6,60,2911,1,0.8,0.5,
6,61,1357,-1,0.8,0.95,
6,62,2067,-1,0.65,0.65,
6,63,2047,-1,1.1,0.95,
6,64,3643,-1,0.5,0.95,
6,65,2231,-1,0.8,0.65,
6,66,2366,1,1.55,1.25,
6,67,2632,1,0.8,0.95,
6,68,1651,-1,0.65,0.8,
6,69,1586,-1,0.35,0.65,
6,70,1296,-1,0.95,0.95,
6,71,1235,1,0,0.5,
6,72,1516,1,0.65,1.55,
6,73,2250,-1,0.95,0.65,
6,74,2296,1,0.35,0.65,
6,75,1628,-1,0.95,0,
6,76,2304,-1,0.95,0.65,
6,77,1846,1,0.95,0.95,
6,78,1605,-1,0.95,0,
6,79,1271,-1,1.4,0.5,
6,80,2963,-1,0.95,0.8,
6,81,2341,1,0.65,0.65,
6,82,2313,1,0.8,0,
6,83,1339,1,0.95,0.65,
6,84,1323,-1,1.25,1.55,
6,85,2284,1,0.95,0.65,
6,86,1511,-1,1.4,0.95,
6,87,1688,1,0.8,0.95,
6,88,848,1,0.95,0.95,
6,89,2451,1,0.8,0.95,
6,90,1051,-1,0.5,0,
6,91,1537,1,0.35,0.95,
6,92,1026,-1,0.5,0,
6,93,1821,1,0.65,1.1,
6,94,1019,-1,0.65,0,
6,95,1082,1,0.95,0.95,
6,96,2864,1,0.95,0.65,
6,97,2367,1,0.65,0.95,
6,98,1091,-1,0.65,0.35,
6,99,1598,1,0.8,0.65,
6,100,1885,1,0.65,0.65,
6,101,1530,-1,1.25,0.35,
6,102,1104,-1,0.95,0.8,
6,103,1021,-1,0.95,0.95,
6,104,1850,-1,0.8,0.95,
6,105,1320,1,0.65,0.65,
6,106,904,1,0,0.95,
6,107,1339,1,0.65,0.65,
6,108,1143,-1,0.8,0.8,
6,109,1422,-1,0.95,0,
6,110,1125,1,0.95,0.95,
6,111,1384,-1,0.95,0.8,
6,112,1261,1,0,0.95,
6,113,1501,-1,1.55,0.65,
6,114,1148,1,0.65,0.95,
6,115,1303,1,0.95,0.65,
6,116,1263,1,0.5,0.8,
6,117,1326,1,0.8,0.65,
6,118,6668,-1,0.65,0.8,
6,119,1010,1,0,0.95,
7,0,2562,-1,0.95,0.95,
7,1,3709,-1,2.45,1.1,
7,2,3707,-1,1.1,1.1,
7,3,1775,-1,1.4,0.95,
7,4,2242,-1,1.1,0.35,
7,5,7777,1,0.95,2,
7,6,3068,1,1.1,0.95,
7,7,4508,-1,1.55,1.1,
7,8,3300,1,0.95,1.55,
7,9,1901,1,0.95,1.1,
7,10,2798,1,1.55,1.1,
7,11,6463,1,0.5,0.95,
7,12,2423,1,0.95,2.3,
7,13,3995,-1,2.45,2,
7,14,4172,1,0.95,1.1,
7,15,2646,-1,1.1,0.65,
7,16,3748,1,0.35,0.5,
7,17,3971,-1,0.95,1.4,
7,18,4791,-1,1.25,0.5,
7,19,6822,1,1.55,1.85,
7,20,7438,1,1.1,1.1,
7,21,4818,-1,2,1.25,
7,22,2526,-1,2,0.35,
7,23,4766,-1,2,1.4,
7,24,2008,1,2,1.1,
7,25,2589,1,0.5,2.45,
7,26,2672,1,2,2.45,
7,27,3508,1,0.35,1.1,
7,28,2744,-1,1.4,1.1,
7,29,6724,-1,1.1,1.25,
7,30,4206,1,0.5,0.95,
7,31,3373,1,2,0.95,
7,32,2463,-1,0.95,0.95,
7,33,3506,1,1.1,0.95,
7,34,2164,1,1.1,2.45,
7,35,2248,-1,0.95,1.1,
7,36,1490,1,1.25,1.1,
7,37,2130,1,0.95,1.25,
7,38,1253,-1,1.1,1.1,
7,39,3991,1,0.95,1.1,
7,40,2772,-1,2.45,1.1,
7,41,2700,1,0.5,1.25,
7,42,2661,-1,1.55,0.95,
7,43,1749,1,0.95,1.4,
7,44,2555,-1,1.1,0.95,
7,45,2085,-1,1.1,1.25,
7,46,2682,-1,1.4,2,
7,47,3236,1,1.1,1.55,
7,48,2828,1,0.95,0.95,
7,49,2501,-1,2,0.5,
7,50,2631,-1,1.1,0.95,
7,51,4864,1,1.1,0.95,
7,52,1410,-1,1.1,1.1,
7,53,1475,1,0.8,1.1,
7,54,4804,-1,2,1.1,
7,55,1677,1,1.1,1.1,
7,56,2396,1,1.1,2.3,
7,57,2395,-1,1.1,0.95,
7,58,2022,1,0.35,1.1,
7,59,1751,1,0.35,2,
7,60,2889,-1,2,0.8,
7,61,1270,-1,1.25,2,
7,62,4447,-1,0.95,0.65,
7,63,2915,-1,1.25,0.95,
7,64,9013,1,1.55,1.4,
7,65,1853,1,1.1,2.45,
7,66,3567,1,1.1,1.85,
7,67,4428,-1,2.45,2,
7,68,3230,1,1.1,1.55,
7,69,4884,-1,1.1,2,
7,70,2585,1,1.1,1.1,
7,71,3986,1,1.1,1.1,
7,72,2925,-1,0.5,0.35,
7,73,2860,-1,1.55,0.65,
7,74,2888,-1,1.4,0.65,
7,75,3153,-1,0.95,1.1,
7,76,3830,1,1.4,0.95,
7,77,2264,1,0.65,1.1,
7,78,3281,1,0.95,2,
7,79,3370,-1,0.95,0.5,
7,80,2827,1,1.1,1.4,
7,81,3953,1,2,2.45,
7,82,6634,-1,1.25,1.1,
7,83,3319,1,1.1,2.45,
7,84,1949,-1,1.1,0.95,
7,85,2403,-1,1.55,1.1,
7,86,1743,1,0.95,1.1,
7,87,2682,1,0.65,0.95,
7,88,2349,-1,1.1,1.1,
7,89,2716,1,1.55,0.95,
7,90,6127,-1,1.85,1.1,
7,91,2647,-1,1.1,1.1,
7,92,3192,1,0.95,0.95,
7,93,2950,-1,2.45,0.5,
7,94,1723,1,2,1.25,
7,95,2383,-1,0.95,1.1,
7,96,1962,1,0.8,2,
7,97,3720,-1,0.95,1.55,
7,98,3087,-1,1.85,1.55,
7,99,1255,-1,2.3,1.1,
7,100,3736,1,0.95,0.5,
7,101,1760,-1,1.1,0.95,
7,102,1405,-1,1.1,0.8,
7,103,2316,-1,0.95,1.1,
7,104,1680,1,1.1,0.95,
7,105,3267,1,1.25,2,
7,106,3536,1,1.4,1.55,
7,107,1581,1,1.1,1.1,
7,108,1304,1,0.95,1.1,
7,109,2650,1,0.65,1.4,
7,110,1761,1,1.1,2,
7,111,2423,1,2,0.95,
7,112,1690,1,0.65,1.55,
7,113,2103,-1,2.45,1.1,
7,114,1738,1,1.1,1.1,
7,115,3921,-1,1.1,0.35,
7,116,2330,-1,2.3,0.95,
7,117,1808,1,0.5,2,
7,118,1669,1,1.1,1.1,
7,119,2295,-1,1.1,1.55,
8,0,6280,-1,1.85,1.7,
8,1,3262,-1,1.25,1.25,
8,2,2781,1,2.75,1.25,
8,3,4808,1,2,0.8,
8,4,3763,-1,1.4,2,
8,5,2120,1,0.8,1.85,
8,6,4439,1,0.8,1.25,
8,7,2881,1,1.4,2.15,
8,8,8834,1,2.3,1.85,
8,9,2776,-1,2,1.25,
8,10,1966,1,1.25,2,
8,11,2514,-1,0.95,2.45,
8,12,10046,1,1.7,1.7,
8,13,4799,1,1.7,2.3,
8,14,2205,-1,1.7,0.95,
8,15,1809,1,2.15,2,
8,16,5917,1,2.15,1.85,
8,17,5962,1,1.1,1.25,
8,18,3225,-1,1.4,1.25,
8,19,3906,-1,1.1,2,
8,20,9244,1,2.75,2,
8,21,3254,-1,0.8,0.8,
8,22,7203,1,2,0.95,
8,23,3248,-1,1.4,1.4,
8,24,9608,1,2.3,1.25,
8,25,2238,-1,2.6,0.95,
8,26,2748,-1,2.15,2,
8,27,3612,1,1.7,0.95,
8,28,2269,-1,2.45,0.95,
8,29,1844,-1,1.85,2,
8,30,3228,1,1.25,0.95,
8,31,2352,1,2,2.3,
8,32,6776,-1,2.45,2,
8,33,2230,1,1.85,2.45,
8,34,2359,-1,1.25,2.15,
8,35,1954,1,1.85,1.1,
8,36,3237,1,0.95,2.15,
8,37,1781,-1,1.85,1.25,
8,38,4639,1,2.3,2,
8,39,2979,-1,1.7,2,
8,40,1878,1,2,2.3,
8,41,1993,-1,1.25,1.25,
8,42,4066,1,1.85,2.45,
8,43,1666,-1,1.25,1.1,
8,44,2165,1,0.8,0.95,
8,45,1595,1,1.7,2.15,
8,46,1735,-1,1.1,1.85,
8,47,1822,1,0.95,2.45,
8,48,2027,-1,2,2.75,
8,49,2905,-1,1.25,2.45,
8,50,1535,-1,2,2.15,
8,51,1528,-1,2,1.4,
8,52,1831,1,0.95,1.7,
8,53,2177,1,1.25,2,
8,54,2255,-1,2.15,1.85,
8,55,1615,1,0.8,2.3,
8,56,2366,1,2.15,1.25,
8,57,1262,-1,2,2.15,
8,58,1535,1,2,1.1,
8,59,1314,1,1.25,1.85,
8,60,4734,-1,0.95,1.4,
8,61,4219,-1,1.7,1.7,
8,62,2133,-1,1.85,2.3,
8,63,3283,1,1.25,1.4,
8,64,1390,1,2,2.15,
8,65,1494,1,1.85,1.25,
8,66,1043,-1,2.6,2.6,
8,67,1583,-1,1.25,2.75,
8,68,1951,1,2.15,0.95,
8,69,1185,-1,0.8,2,
8,70,1984,-1,2,0.95,
8,71,1339,-1,2.3,2,
8,72,1286,-1,2.3,0.8,
8,73,1944,-1,1.7,1.85,
8,74,1853,1,0.8,0.95,
8,75,2109,-1,0.95,1.7,
8,76,1583,1,2.6,0.8,
8,77,1535,1,1.1,0.95,
8,78,1668,1,2.15,1.4,
8,79,1780,-1,1.85,1.4,
8,80,2931,1,1.85,2.15,
8,81,2067,-1,1.85,0.8,
8,82,1560,1,0.8,0.8,
8,83,2001,-1,2.3,2,
8,84,1441,1,2.45,0.95,
8,85,1422,1,2,1.85,
8,86,3294,-1,0.95,0.8,
8,87,1937,-1,2.15,0.95,
8,88,1752,1,0.8,2.3,
8,89,1688,-1,2.3,0.8,
8,90,1085,1,0.95,2,
8,91,1381,1,2,1.7,
8,92,1506,-1,2.45,1.85,
8,93,1745,-1,0.8,2.6,
8,94,2935,-1,1.25,2.3,
8,95,1693,-1,2.15,1.7,
8,96,9412,-1,2.45,1.25,
8,97,2314,-1,1.85,2.15,
8,98,1464,1,2.6,2.6,
8,99,2187,1,2,2.45,
8,100,1468,-1,0.95,0.8,
8,101,1348,1,1.25,1.25,
8,102,1945,1,1.4,1.4,
8,103,1382,1,0.95,2.6,
8,104,1886,-1,1.25,0.8,
8,105,3569,-1,2,2.3,
8,106,3349,-1,0.95,2.15,
8,107,1595,1,1.4,1.85,
8,108,1380,1,1.25,1.25,
8,109,1668,1,1.4,2,
8,110,2449,-1,0.95,1.25,
8,111,1612,1,2.15,2,
8,112,1495,-1,2.45,1.85,
8,113,1574,1,1.4,0.95,
8,114,2403,-1,0.95,1.1,
8,115,1463,-1,0.95,2,
8,116,2565,1,2,1.4,
8,117,1537,-1,2.3,1.7,
8,118,2100,-1,2,1.25,
8,119,1383,-1,1.25,1.85,
9,0,4076,1,0.5,0.65,
9,1,7342,-1,0.95,0.8,
9,2,7926,1,1.1,1.55,
9,3,7862,-1,1.1,0.5,
9,4,9211,-1,1.4,0.65,
9,5,6437,-1,0.65,0.5,
9,6,8887,1,0.8,0.8,
9,7,7906,-1,0.35,0.2,
9,8,7682,-1,0.65,0.5,
9,9,12700,1,0.5,0.35,
9,10,10860,-1,1.55,1.1,
9,11,5201,-1,1.1,0.5,
9,12,6160,-1,0.5,0.65,
9,13,5265,1,0.35,0.8,
9,14,7706,-1,1.4,0.8,
9,15,7950,-1,0.95,0.65,
9,16,3178,1,0.2,0.8,
9,17,5989,1,0.8,1.4,
9,18,3409,1,0.65,0.65,
9,19,2703,1,0.65,0.95,
9,20,6270,1,1.4,1.55,
9,21,3970,-1,0.5,0.35,
9,22,8677,1,0.65,0.8,
9,23,5384,-1,1.4,0.65,
9,24,4131,-1,1.55,0.8,
9,25,7368,1,0.5,0.95,
9,26,3027,-1,0.95,0.35,
9,27,1947,-1,0.8,0.5,
9,28,3251,-1,0.8,0.35,
9,29,5353,1,0.65,1.1,
9,30,2235,1,0.5,1.55,
9,31,3470,-1,1.25,0.95,
9,32,6025,-1,1.55,0.35,
9,33,1555,-1,0.8,0.65,
9,34,4056,1,0.8,1.4,
9,35,2030,1,0.05,0.8,
9,36,3565,1,0.65,0.8,
9,37,1937,1,0.35,0.5,
9,38,4421,1,0.65,1.25,
9,39,3242,1,0.35,0.65,
9,40,1697,1,0.35,1.55,
9,41,1908,-1,0.65,0.65,
9,42,1797,-1,0.8,0.5,
9,43,2048,-1,0.8,0.5,
9,44,1799,1,0.65,1.4,
9,45,2018,-1,1.25,0.65,
9,46,2057,-1,1.1,0.95,
9,47,2199,1,0.2,0.35,
9,48,5826,1,0.5,0.65,
9,49,4129,-1,0.65,0.65,
9,50,1566,1,0.65,1.4,
9,51,2613,1,0.65,0.8,
9,52,1468,1,0.2,1.55,
9,53,1699,-1,1.55,0.65,
9,54,1608,1,0.5,0.65,
9,55,1556,-1,0.8,0.2,
9,56,1669,1,0.05,0.35,
9,57,1331,1,0.95,1.25,
9,58,3185,-1,0.8,0.05,
9,59,1955,-1,1.1,0.65,
9,60,2036,1,0.8,1.4,
9,61,1657,-1,0.8,0.65,
9,62,1579,1,0.5,1.1,
9,63,2195,1,1.1,1.55,
9,64,1662,1,0.35,1.55,
9,65,1752,-1,0.95,0.8,
9,66,1536,1,0.35,0.8,
9,67,5328,1,0.8,0.95,
9,68,6890,-1,0.65,0.95,
9,69,4058,-1,1.4,0.8,
9,70,2141,-1,0.65,0.35,
9,71,1434,-1,0.8,0.35,
9,72,3682,-1,0.65,0.5,
9,73,886,1,0.8,0.95,
9,74,1430,-1,0.65,0.2,
9,75,2134,-1,0.95,0.65,
9,76,1446,1,0.35,1.4,
9,77,1959,-1,1.1,0.8,
9,78,3418,-1,0.35,0.5,
9,79,3483,-1,1.55,1.55,
9,80,1629,1,0.8,0.95,
9,81,1546,1,0.5,1.1,
9,82,1854,1,0.65,0.95,
9,83,5188,1,0.8,0.65,
9,84,1442,-1,1.55,0.5,
9,85,1680,-1,1.55,1.4,
9,86,1745,-1,0.35,0.05,
9,87,1625,1,0.8,1.1,
9,88,1612,1,0.2,0.65,
9,89,1946,-1,0.65,0.35,
9,90,1740,-1,1.4,0.35,
9,91,1863,-1,0.95,0.65,
9,92,1989,-1,1.4,0.8,
9,93,1949,-1,0.95,0.5,
9,94,1747,-1,0.65,0.5,
9,95,2973,-1,1.1,0.5,
9,96,2123,-1,1.55,1.1,
9,97,1819,1,0.5,0.8,
9,98,2069,1,0.8,1.55,
9,99,1819,1,0.5,0.8,
9,100,1802,-1,1.55,0.35,
9,101,3558,-1,0.65,0.5,
9,102,2240,-1,1.4,0.65,
9,103,1748,1,0.35,0.5,
9,104,1234,1,0.65,1.4,
9,105,1470,1,0.5,0.8,
9,106,2641,1,0.35,0.95,
9,107,2270,1,1.55,1.55,
9,108,4314,1,0.65,0.65,
9,109,1667,-1,1.55,0.2,
9,110,1672,-1,1.55,0.35,
9,111,2124,-1,0.8,0.8,
9,112,2135,-1,0.5,0.35,
9,113,1664,1,0.65,1.55,
9,114,1724,1,0.95,1.1,
9,115,3955,-1,0.35,0.65,
9,116,1780,-1,0.95,0.8,
9,117,1572,1,0.5,1.1,
9,118,1499,1,0.35,1.55,
9,119,1501,1,0.5,0.65,
10,0,3506,-1,0.5,0.05,
10,1,2980,-1,1.55,0.5,
10,2,3085,-1,2.15,1.7,
10,3,4721,1,2.45,2,
10,4,2865,1,2.15,2.45,
10,5,3203,1,1.55,1.85,
10,6,4214,1,2,1.1,
10,7,3555,-1,1.7,1.7,
10,8,2589,1,1.7,1.7,
10,9,7639,-1,0.5,2.15,
10,10,2773,1,0.5,1.7,
10,11,2031,1,0.2,2.45,
10,12,2572,-1,0.95,0.8,
10,13,2365,1,0.8,2,
10,14,2909,1,1.4,2.45,
10,15,2928,-1,1.4,2.75,
10,16,3911,1,2.15,2,
10,17,3158,-1,1.85,2,
10,18,4834,1,2.15,1.7,
10,19,5582,-1,1.7,2.45,
10,20,5670,-1,2,0.5,
10,21,3809,1,0.35,0.95,
10,22,2212,-1,1.4,1.1,
10,23,3480,1,1.7,2.15,
10,24,3696,1,1.85,2.45,
10,25,6170,1,2,1.55,
10,26,4571,-1,1.85,0.65,
10,27,4636,-1,1.7,0.95,
10,28,3689,-1,1.55,0.65,
10,29,4681,-1,0.95,0.8,
10,30,3393,1,1.25,1.7,
10,31,9360,1,1.7,1.55,
10,32,7062,-1,1.4,0.5,
10,33,4169,1,0.05,2,
10,34,2802,-1,2.15,1.25,
10,35,3467,-1,0.95,2.45,
10,36,3090,1,2.75,2.3,
10,37,2204,1,1.85,0.95,
10,38,1922,-1,2.3,1.55,
10,39,5786,-1,1.55,1.1,
10,40,2736,-1,1.7,0.5,
10,41,2466,-1,2.15,0.5,
10,42,3623,1,1.55,2,
10,43,2424,1,0.8,2,
10,44,2002,-1,2.45,0.2,
10,45,1571,1,0.05,0.5,
10,46,3560,-1,2.15,0.95,
10,47,2252,1,1.1,2,
10,48,1642,1,1.55,1.25,
10,49,4497,1,2,2.3,
10,50,1703,-1,1.1,2.45,
10,51,1717,-1,2.3,0.35,
10,52,2756,-1,0.5,1.55,
10,53,2988,-1,1.1,1.55,
10,54,2556,1,1.7,1.25,
10,55,2471,-1,2,2,
10,56,2101,1,1.1,1.7,
10,57,3562,-1,1.7,1.85,
10,58,4303,-1,0.95,1.1,
10,59,1778,1,0.5,1.4,
10,60,1344,1,0.65,1.55,
10,61,1962,1,1.7,1.7,
10,62,4684,-1,2.45,0.95,
10,63,2466,-1,1.7,2,
10,64,1986,-1,2.45,1.4,
10,65,2107,-1,2.45,1.85,
10,66,2329,-1,1.25,0.35,
10,67,2312,1,0.35,2.45,
10,68,1893,-1,2.15,1.7,
10,69,2260,-1,2,0.05,
10,70,1554,1,0.2,1.4,
10,71,2578,1,0.95,1.7,
10,72,2204,1,1.4,2,
10,73,3943,1,0.5,1.85,
10,74,2454,-1,2.45,1.7,
10,75,2718,-1,2,2.15,
10,76,2538,-1,1.25,1.7,
10,77,1732,-1,2.45,1.85,
10,78,3655,-1,1.7,2.15,
10,79,4338,-1,1.7,1.25,
10,80,4509,1,0.8,0.95,
10,81,1608,1,0.35,2.3,
10,82,1847,1,0.5,2,
10,83,3415,-1,1.85,1.55,
10,84,2469,-1,2.45,1.1,
10,85,2127,1,1.7,1.25,
10,86,3784,-1,1.25,1.7,
10,87,4130,1,2,1.85,
10,88,2072,-1,1.7,1.1,
10,89,2461,1,1.55,2.3,
10,90,3262,-1,2,0.8,
10,91,2578,1,1.85,1.7,
10,92,2521,1,2,1.7,
10,93,2312,1,1.1,0.95,
10,94,5048,-1,2,0.8,
10,95,2326,1,1.1,1.4,
10,96,2761,-1,2,2.45,
10,97,1701,-1,2,1.4,
10,98,1430,-1,2.3,2,
10,99,2193,-1,2.45,2.15,
10,100,1634,-1,2.3,2.75,
10,101,3721,-1,0.95,0.35,
10,102,2321,-1,1.25,1.55,
10,103,3127,1,0.5,1.7,
10,104,4937,-1,1.85,0.5,
10,105,1991,1,1.85,2.45,
10,106,1710,-1,2.45,0.35,
10,107,2766,-1,2,2,
10,108,1513,-1,1.7,0.5,
10,109,2012,1,0.8,0.95,
10,110,4019,-1,0.95,1.85,
10,111,2201,1,1.25,2.15,
10,112,2828,-1,1.7,1.7,
10,113,3757,-1,1.55,1.7,
10,114,1941,1,1.7,2.15,
10,115,2158,1,2.75,1.4,
10,116,2861,1,0.95,2.15,
10,117,1471,-1,1.4,0.2,
10,118,2292,1,0.65,1.85,
10,119,2536,1,0.35,1.25,
11,0,2760,-1,0.8,1.85,
11,1,5105,1,1.1,1.1,
11,2,4853,1,0.95,0.8,
11,3,3052,-1,0.65,0.35,
11,4,5478,1,0.95,0.5,
11,5,2862,1,0.65,0.8,
11,6,2763,1,0.9,0.95,
11,7,3249,1,0.95,2.6,
11,8,5690,1,1.1,1.25,
11,9,2140,1,0.8,0.5,
11,10,2729,1,0.5,0.8,
11,11,1517,1,0.35,1.55,
11,12,2032,-1,2,0.8,
11,13,4849,-1,1.1,0.95,
11,14,2284,-1,1.55,1.25,
11,15,3563,-1,2.6,2.75,
11,16,2064,-1,0.95,1.4,
11,17,3308,-1,0.8,0.8,
11,18,2133,-1,2,0.95,
11,19,2093,1,0.95,2.6,
11,20,2719,-1,0.95,0.8,
11,21,2134,1,0.8,2.75,
11,22,3938,-1,0.9,1.25,
11,23,2338,-1,0.8,0.5,
11,24,4431,1,1.55,2.15,
11,25,3701,-1,1.85,1.1,
11,26,3714,1,0.8,1.1,
11,27,2911,1,0.95,1.1,
11,28,2926,-1,1.55,0.95,
11,29,4004,-1,1.55,0.65,
11,30,3017,1,0.8,0.8,
11,31,2236,-1,1.1,0.5,
11,32,4422,-1,0.95,1.1,
11,33,2606,-1,1.55,1.1,
11,34,3975,-1,1.1,0.5,
11,35,1816,-1,0.95,0.5,
11,36,2089,-1,2.6,1.1,
11,37,1671,1,1.4,2,
11,38,3882,-1,2.15,0.8,
11,39,3183,1,0.65,1.1,
11,40,2048,-1,1.1,0.8,
11,41,1358,1,0.95,2,
11,42,1972,1,1.1,2.6,
11,43,1506,1,0.5,0.95,
11,44,1870,1,1.25,1.55,
11,45,3827,1,1.55,2,
11,46,4009,1,0.95,0.95,
11,47,1823,-1,0.95,0.5,
11,48,1891,-1,1.55,0.5,
11,49,3176,-1,0.8,1.1,
11,50,1522,1,1.85,2,
11,51,1172,1,0.5,1.1,
11,52,1541,1,1.1,1.85,
11,53,1815,-1,1.1,1.55,
11,54,1635,1,1.1,2.6,
11,55,1287,1,0.8,2,
11,56,1549,1,0.5,0.8,
11,57,2081,-1,0.95,1.1,
11,58,3162,1,1.25,0.95,
11,59,1424,1,0.8,2.15,
11,60,2061,-1,1.1,0.8,
11,61,2998,-1,2.15,1.55,
11,62,2476,-1,2,0.8,
11,63,2307,1,0.65,1.55,
11,64,2429,-1,1.1,0.65,
11,65,1946,-1,0.8,0.35,
11,66,1583,1,0.35,2.6,
11,67,1881,1,0.8,0.95,
11,68,4080,1,0.95,0.95,
11,69,1583,-1,0.95,0.9,
11,70,1862,-1,1.55,0.35,
11,71,2190,-1,1.7,0.8,
11,72,3909,1,0.95,1.7,
11,73,2582,-1,2.15,0.95,
11,74,2094,-1,0.8,0.5,
11,75,1126,1,0.35,0.65,
11,76,4553,-1,1.1,2.15,
11,77,2060,-1,0.5,1.85,
11,78,1614,-1,1.1,0.8,
11,79,2439,1,0.8,0.65,
11,80,2055,-1,2.6,1.1,
11,81,1806,1,0.95,1.55,
11,82,2709,1,0.8,0.95,
11,83,5664,1,2.15,1.1,
11,84,4047,-1,1.25,1.1,
11,85,5885,-1,1.1,0.95,
11,86,2649,-1,2,1.4,
11,87,2196,1,2.75,2.6,
11,88,1713,1,1.1,0.8,
11,89,1688,-1,0.8,0.8,
11,90,2312,-1,1.7,0.95,
11,91,1614,1,0.8,1.1,
11,92,1674,1,2.6,0.95,
11,93,2117,1,0.95,2.15,
11,94,3274,1,2.75,0.8,
11,95,1867,-1,1.1,0.95,
11,96,1273,1,0.8,1.7,
11,97,1686,1,0.8,0.8,
11,98,1439,1,0.35,0.8,
11,99,1928,-1,1.85,0.8,
11,100,2615,-1,0.95,1.25,
11,101,2699,-1,0.5,0.8,
11,102,2169,1,0.95,0.8,
11,103,2593,-1,0.95,0.95,
11,104,2311,-1,2.6,0.95,
11,105,3911,-1,0.95,0.95,
11,106,2211,1,1.85,0.5,
11,107,1851,1,1.1,1.1,
11,108,1526,1,0.8,1.1,
11,109,1669,1,0.5,1.1,
11,110,2369,-1,2.6,0.35,
11,111,1317,1,0.8,0.95,
11,112,2625,1,2,1.55,
11,113,2430,-1,1.25,0.9,
11,114,2106,1,0.8,2,
11,115,1432,1,1.4,0.95,
11,116,1304,1,0.5,0.95,
11,117,2075,1,2,1.85,
11,118,3202,1,0.5,0.95,
11,119,926,1,0.5,1.55,
12,0,3122,1,1.1,1.55,
12,1,2113,-1,2,0.95,
12,2,1817,1,0.95,1.25,
12,3,13467,1,2,1.1,
12,4,2553,1,0.5,0.95,
12,5,3777,-1,1.55,0.95,
12,6,2998,-1,1.1,0.8,
12,7,3867,1,3,1.55,
12,8,3850,1,1.25,1.1,
12,9,3788,-1,1.25,0.95,
12,10,3168,-1,1.25,0.8,
12,11,5483,1,0.8,0.95,
12,12,5333,-1,1.4,0.95,
12,13,3084,1,0.95,1.1,
12,14,2038,1,1.1,2,
12,15,2726,1,0.65,1.1,
12,16,2985,1,1.1,1.1,
12,17,3928,1,1.25,1.25,
12,18,2503,-1,1.1,0.65,
12,19,2530,1,0.95,3,
12,20,7257,1,0.8,1.55,
12,21,3053,-1,1.1,0.5,
12,22,5096,1,0.95,1.4,
12,23,2094,1,1.1,2.3,
12,24,2974,1,0.95,1.1,
12,25,3254,-1,1.55,0.8,
12,26,1982,-1,1.55,1.55,
12,27,5552,1,1.1,1.4,
12,28,5590,1,1.4,1.1,
12,29,9101,1,1.25,1.1,
12,30,4241,-1,0.95,0.8,
12,31,6322,1,1.4,2,
12,32,4835,1,1.1,1.1,
12,33,3087,-1,0.95,0.95,
12,34,2451,-1,1.55,1.25,
12,35,13101,-1,1.1,1.1,
12,36,3194,1,0.95,1.1,
12,37,3344,-1,1.1,0.95,
12,38,1457,-1,1.1,0.95,
12,39,2485,-1,0.95,0.95,
12,40,2982,-1,1.1,1.25,
12,41,3131,-1,1.1,0.8,
12,42,2125,1,0.95,1.4,
12,43,1741,1,1.25,0.95,
12,44,7726,1,1.25,1.55,
12,45,2261,1,0.5,1.1,
12,46,1268,-1,1.1,0.95,
12,47,3110,1,1.25,1.1,
12,48,2557,-1,1.4,1.25,
12,49,3128,-1,1.1,1.4,
12,50,2172,-1,1.1,1.1,
12,51,2781,1,1.4,0.8,
12,52,1806,-1,2,1.1,
12,53,1993,1,0.8,1.1,
12,54,2642,1,0.95,0.95,
12,55,3105,-1,1.1,1.1,
12,56,4473,-1,0.95,1.1,
12,57,1413,-1,2.3,1.1,
12,58,1600,-1,1.55,0.8,
12,59,1747,1,1.55,1.55,
12,60,4233,1,2,2.3,
12,61,2041,-1,1.1,1.1,
12,62,6414,1,1.1,1.1,
12,63,2066,1,0.95,1.1,
12,64,3344,-1,1.25,1.1,
12,65,1771,-1,2,0.8,
12,66,4325,-1,0.95,0.8,
12,67,1653,1,0.65,1.1,
12,68,1831,1,0.95,0.95,
12,69,2366,-1,1.85,1.1,
12,70,3928,-1,0.95,1.85,
12,71,745,-1,1.4,1.1,
12,72,589,-1,1.1,2,
12,73,2382,-1,1.1,0.95,
12,74,2128,-1,1.1,1.25,
12,75,1814,1,1.1,1.1,
12,76,1919,1,0.8,1.55,
12,77,1829,1,0.8,1.25,
12,78,5215,1,0.95,1.25,
12,79,1722,1,0.95,1.1,
12,80,1948,-1,1.1,1.25,
12,81,2361,-1,1.25,1.25,
12,82,1359,-1,1.4,0.95,
12,83,3505,-1,1.25,0.95,
12,84,1759,1,1.25,1.4,
12,85,2437,-1,1.4,0.95,
12,86,1846,1,1.1,2,
12,87,6845,-1,1.1,0.95,
12,88,3491,-1,1.55,1.1,
12,89,2384,1,1.1,1.1,
12,90,1764,1,1.1,0.8,
12,91,2886,-1,1.1,0.65,
12,92,2924,-1,2.3,2,
12,93,1612,-1,1.1,1.1,
12,94,1905,-1,0.95,1.25,
12,95,2184,-1,1.1,1.85,
12,96,1669,1,0.95,1.1,
12,97,2722,-1,1.1,2,
12,98,4781,1,0.8,1.4,
12,99,923,-1,0.8,2,
12,100,2715,1,0.8,0.95,
12,101,1932,-1,1.1,0.95,
12,102,2508,1,1.55,3,
12,103,1277,-1,2,1.1,
12,104,2415,-1,3,0.95,
12,105,5030,-1,2,1.1,
12,106,1638,1,1.1,1.1,
12,107,1720,-1,0.8,1.1,
12,108,1208,-1,0.8,1.1,
12,109,6303,1,0.95,0.5,
12,110,1810,1,0.95,1.55,
12,111,2031,-1,1.1,1.1,
12,112,1511,1,0.95,2,
12,113,1582,-1,2,1.4,
12,114,1433,-1,1.1,1.1,
12,115,1773,-1,1.1,1.1,
12,116,1225,-1,1.85,0.95,
12,117,2914,-1,1.1,0.95,
12,118,1666,1,0.95,1.4,
12,119,3874,-1,1.1,1.25,
13,0,3026,-1,1.55,0.95,
13,1,6085,-1,1.4,0.65,
13,2,2973,1,0.5,1.25,
13,3,2403,-1,1.7,0.2,
13,4,4994,-1,1.4,1.25,
13,5,8129,1,0.8,1.1,
13,6,2724,1,0.2,0.95,
13,7,2958,1,0.65,1.7,
13,8,6325,-1,0.8,0.8,
13,9,2982,-1,1.55,0.95,
13,10,2517,1,0.5,1.7,
13,11,4855,-1,0.8,0.5,
13,12,5389,-1,1.4,0.65,
13,13,8752,-1,0.65,0.5,
13,14,6138,1,1.4,0.8,
13,15,11077,1,0.8,1.7,
13,16,8571,-1,1.7,1.4,
13,17,2352,1,0.35,1.4,
13,18,2796,1,0.65,1.7,
13,19,7217,-1,1.55,1.1,
13,20,2216,-1,0.45,0.15,
13,21,4222,1,1.4,1.4,
13,22,8159,1,1.25,1.55,
13,23,2066,-1,0.95,0.35,
13,24,6417,-1,0.8,0.65,
13,25,3729,1,1.7,2,
13,26,2155,-1,1.55,0.8,
13,27,1420,-1,1.55,0.5,
13,28,2756,-1,0.95,0.95,
13,29,5361,-1,0.65,0.35,
13,30,2690,-1,2,0.95,
13,31,3691,1,1.7,2,
13,32,3081,1,0.8,0.95,
13,33,3734,-1,1.85,1.55,
13,34,1798,1,1.25,0.65,
13,35,7156,-1,0.5,1.7,
13,36,3874,1,0.45,1.4,
13,37,1818,-1,1.7,1.25,
13,38,2288,1,0,0.8,
13,39,1531,-1,1.7,0.95,
13,40,1843,-1,2,0.95,
13,41,2659,1,0.65,1.25,
13,42,6096,1,1.55,1.7,
13,43,1394,-1,1.7,0.65,
13,44,1685,-1,0.5,0.95,
13,45,5368,-1,1.4,1.4,
13,46,3149,1,0.95,1.55,
13,47,4200,1,1.1,1.55,
13,48,1871,-1,0.65,0.2,
13,49,5307,1,2,1.7,
13,50,1129,1,0.15,1.7,
13,51,3542,-1,1.7,1.1,
13,52,3093,-1,0.65,0.95,
13,53,4561,-1,1.25,0.5,
13,54,1770,-1,1.4,0.35,
13,55,1420,-1,1.7,0.5,
13,56,3153,1,1.25,1.4,
13,57,3412,1,0.95,1.85,
13,58,2581,1,1.7,1.55,
13,59,2098,-1,1.7,0.65,
13,60,3913,-1,0.95,0.65,
13,61,2231,1,0.95,1.7,
13,62,2624,1,0.5,0.5,
13,63,4743,-1,1.1,0.95,
13,64,1592,-1,1.25,0.5,
13,65,3100,1,0.35,1.7,
13,66,4751,1,1.7,0.8,
13,67,3495,-1,1.1,0.8,
13,68,1791,1,0.2,1.7,
13,69,2888,1,0.5,0.8,
13,70,1503,1,0.35,0.95,
13,71,1312,1,0.35,0.65,
13,72,2402,1,0.2,1.7,
13,73,1841,-1,0.8,1.4,
13,74,2094,1,0,1.55,
13,75,2247,1,0.15,0.45,
13,76,2259,1,0.65,0.8,
13,77,2496,1,1.25,1.7,
13,78,3827,-1,1.55,1.7,
13,79,2171,-1,0.65,1.25,
13,80,4286,-1,1.85,0.95,
13,81,1674,-1,1.55,0,
13,82,2642,-1,0.65,0.95,
13,83,1775,1,1.7,1.55,
13,84,1913,1,0.8,0.8,
13,85,1524,1,0.5,1.55,
13,86,3266,1,1.4,1.7,
13,87,2329,1,0.8,1.55,
13,88,1653,-1,1.7,0.2,
13,89,3485,-1,1.25,0.65,
13,90,3184,1,0.95,1.55,
13,91,2099,1,0.95,0.65,
13,92,1136,1,0.95,1.55,
13,93,3904,-1,1.55,1.25,
13,94,3114,-1,1.25,1.4,
13,95,1077,-1,0.8,0,
13,96,4534,1,1.55,1.85,
13,97,3365,1,1.1,1.7,
13,98,4319,-1,1.7,1.55,
13,99,1701,-1,0.95,0.2,
13,100,2377,1,0.95,0.95,
13,101,1792,-1,0.5,0.5,
13,102,4765,-1,1.55,0.95,
13,103,4563,-1,0.5,1.25,
13,104,1163,1,0.2,0.65,
13,105,2835,-1,1.4,0.45,
13,106,2615,1,0.95,2,
13,107,2472,-1,1.7,0.35,
13,108,1629,-1,1.7,0.15,
13,109,2520,1,0.95,2,
13,110,1672,1,0.95,1.1,
13,111,6876,-1,1.4,1.25,
13,112,2783,1,1.7,0.5,
13,113,1208,1,0.5,0.65,
13,114,4702,1,0.95,0.8,
13,115,2309,-1,1.55,1.7,
13,116,5914,1,0.65,1.4,
13,117,1745,1,0.95,0.5,
13,118,2538,-1,2,1.7,
13,119,6103,1,0.65,1.4,
14,0,2347,1,0,1.7,
14,1,4609,-1,2.15,1.85,
14,2,2277,-1,1.85,0.95,
14,3,4343,1,1.85,2.15,
14,4,1852,-1,2.45,0.95,
14,5,3006,1,1.25,3,
14,6,3997,1,1.85,1.85,
14,7,2303,1,1.7,1.85,
14,8,2471,-1,1.7,0.95,
14,9,2984,-1,2.3,1.7,
14,10,2887,-1,2.15,1.55,
14,11,3416,1,0,1.4,
14,12,3238,-1,2,2.15,
14,13,4059,1,2,2,
14,14,5618,-1,3,1.7,
14,15,2367,1,2.15,2,
14,16,4644,-1,2.45,2,
14,17,2863,1,1.25,1.7,
14,18,5322,-1,2.3,1.85,
14,19,3601,-1,0.95,1.55,
14,20,3177,-1,2,1.1,
14,21,2087,1,1.1,1.85,
14,22,1881,-1,2,1.4,
14,23,2636,1,0,2,
14,24,2977,1,2,2.15,
14,25,1999,-1,2.45,1.1,
14,26,1680,-1,1.7,0,
14,27,1682,-1,2.45,0,
14,28,2004,-1,0.95,1.1,
14,29,3834,1,0,1.85,
14,30,2209,1,0.35,2.15,
14,31,3455,1,1.55,2.6,
14,32,1943,-1,3,2,
14,33,2699,-1,1.55,0.95,
14,34,2353,-1,1.25,1.1,
14,35,1816,1,0.8,1.7,
14,36,2326,1,1.7,2.3,
14,37,1670,-1,1.85,1.25,
14,38,1581,1,0.95,2.15,
14,39,3447,1,1.25,2,
14,40,2660,1,1.4,2,
14,41,5081,1,2,2.45,
14,42,1518,1,0.95,2.45,
14,43,5153,-1,3,2.3,
14,44,3875,1,2.6,2.45,
14,45,3791,-1,2.45,0,
14,46,11142,1,1.1,1.25,
14,47,2744,1,1.55,2.15,
14,48,3385,1,1.25,1.1,
14,49,5527,1,1.7,1.7,
14,50,4437,-1,2,1.7,
14,51,2800,1,0.95,1.55,
14,52,8278,-1,2.15,0.8,
14,53,2593,1,1.7,2,
14,54,5415,1,1.7,3,
14,55,7503,1,0.95,2,
14,56,1485,-1,1.85,0,
14,57,1678,1,0.95,1.7,
14,58,1670,-1,2.15,0.35,
14,59,1435,-1,1.85,0,
14,60,3075,-1,0.35,0,
14,61,2836,1,1.85,2.3,
14,62,2918,-1,1.7,1.25,
14,63,3368,1,2.3,2.45,
14,64,3790,1,1.1,2.45,
14,65,3975,-1,2.15,2,
14,66,10704,1,2.15,2,
14,67,2259,-1,2.15,1.1,
14,68,4703,1,2,1.85,
14,69,3892,-1,1.55,1.1,
14,70,2285,1,1.1,0.95,
14,71,1677,-1,2,0,
14,72,5637,-1,1.7,2.15,
14,73,2500,1,1.1,2,
14,74,1617,-1,2,0.95,
14,75,6712,-1,2.15,1.85,
14,76,1661,-1,0.95,0,
14,77,2060,1,1.25,1.85,
14,78,4647,1,2.15,2.45,
14,79,3879,-1,2.3,1.55,
14,80,2797,1,1.1,1.25,
14,81,2269,1,1.55,2.3,
14,82,3319,1,0,0.35,
14,83,2630,1,0,2.45,
14,84,4088,1,2.15,1.7,
14,85,1656,-1,1.85,2,
14,86,2743,1,2.3,3,
14,87,2090,-1,1.7,0.8,
14,88,2497,1,1.1,2.15,
14,89,3452,1,0.95,1.85,
14,90,1385,-1,3,1.25,
14,91,1457,-1,2,1.7,
14,92,2053,1,1.7,2.3,
14,93,1590,-1,2,2,
14,94,1725,-1,2.3,1.7,
14,95,3526,-1,2,2.15,
14,96,1481,-1,2.45,2.6,
14,97,4475,-1,1.85,1.7,
14,98,2768,1,0.95,2,
14,99,2070,1,0,0.95,
14,100,1682,-1,1.4,0,
14,101,2798,-1,2.45,2.3,
14,102,2243,1,1.85,2.15,
14,103,2567,-1,2.6,1.55,
14,104,2400,-1,1.85,1.1,
14,105,1727,-1,2.15,0.95,
14,106,1333,-1,1.7,1.7,
14,107,1451,-1,2.45,2.15,
14,108,3171,-1,2,0.95,
14,109,1823,1,0,1.85,
14,110,1639,-1,1.7,2,
14,111,1509,1,0,1.7,
14,112,1789,1,0,2.45,
14,113,1537,-1,1.7,0,
14,114,1819,1,1.1,1.55,
14,115,1500,1,1.55,0.95,
14,116,1563,-1,2,1.25,
14,117,1570,-1,1.85,1.85,
14,118,1690,1,0.8,2.15,
14,119,1511,1,2,3,
15,0,5398,-1,0.35,0.95,
15,1,3681,-1,2,1.55,
15,2,10254,1,1.25,0.35,
15,3,7236,1,0,0,
15,4,3581,1,0,2.15,
15,5,6010,-1,1.4,0.8,
15,6,2128,-1,2.6,0.2,
15,7,3927,1,0.05,2.75,
15,8,2434,-1,3,0.35,
15,9,2731,1,0.05,2.15,
15,10,3431,-1,0.05,0,
15,11,5329,1,0.05,0.2,
15,12,2264,-1,2,0,
15,13,4634,-1,0.15,0.2,
15,14,4420,1,0.05,0.05,
15,15,4781,-1,1.55,0.95,
15,16,2578,1,0.15,1.55,
15,17,1730,-1,0.95,0.05,
15,18,4365,1,0.35,0.05,
15,19,6379,-1,2.15,0.95,
15,20,5608,1,0.95,0.05,
15,21,2135,-1,2.6,1.25,
15,22,4357,1,0.05,0.05,
15,23,5648,-1,0.35,0.2,
15,24,3293,1,0.05,1.55,
15,25,4716,-1,0.35,0.15,
15,26,2743,1,0.15,0.65,
15,27,9481,1,2,2,
15,28,2364,-1,0.05,0.35,
15,29,3458,1,0.05,0.65,
15,30,4363,-1,1.4,0.15,
15,31,4529,-1,2,0.05,
15,32,5752,-1,0.65,1.55,
15,33,3636,1,0.65,3,
15,34,2780,-1,0.05,0.15,
15,35,2434,1,0.05,1.55,
15,36,6016,1,0.65,2.9,
15,37,3525,1,0.35,0.8,
15,38,13395,-1,0.35,0.65,
15,39,4722,-1,0.95,0.05,
15,40,2537,1,1.55,0.15,
15,41,2947,1,0.95,2.15,
15,42,1619,-1,0.05,0.05,
15,43,1767,1,0,0.95,
15,44,1357,-1,3,0.05,
15,45,2327,1,1.25,2.6,
15,46,1295,-1,1.85,0.95,
15,47,1505,-1,0.35,1.25,
15,48,1539,-1,1.55,0.05,
15,49,1917,1,0.05,2,
15,50,1641,-1,2.15,0,
15,51,5970,1,2,2,
15,52,1399,-1,2.9,0,
15,53,2385,1,0.05,0.65,
15,54,2077,1,0.05,0.65,
15,55,3838,-1,0.65,0.35,
15,56,2894,-1,0,0,
15,57,3646,-1,0,0.2,
15,58,2923,1,0.05,0.95,
15,59,1362,-1,2.15,0.05,
15,60,1653,1,0,1.85,
15,61,2215,-1,0.05,0.05,
15,62,1651,-1,0.65,0.15,
15,63,1286,-1,2.75,0.05,
15,64,1974,1,0.95,3,
15,65,1744,1,0.65,2.15,
15,66,2072,1,0.95,1.55,
15,67,2848,1,0.2,2.15,
15,68,2096,1,0.15,0.05,
15,69,2181,1,0.05,0,
15,70,1402,-1,0.35,0.05,
15,71,2439,-1,1.55,0.05,
15,72,1342,-1,2.15,1.55,
15,73,1279,-1,2.75,0.65,
15,74,1656,-1,0.2,0.05,
15,75,3002,1,0.8,1.4,
15,76,1997,1,0.05,0.95,
15,77,2417,1,0,0.05,
15,78,1851,1,0.2,2.6,
15,79,5824,1,0.35,0.05,
15,80,5859,-1,0.8,0.35,
15,81,3315,1,0.2,0,
15,82,2559,-1,3,0.95,
15,83,4225,-1,1.55,2,
15,84,2053,-1,0.65,0.05,
15,85,2050,1,0.2,0.15,
15,86,1325,-1,1.85,0,
15,87,1781,1,0.05,0.35,
15,88,2057,1,0.05,0.05,
15,89,2343,-1,0.05,0.35,
15,90,1676,1,0.05,2,
15,91,7734,-1,0.95,0.05,
15,92,1523,-1,2.15,0.2,
15,93,1913,1,0.05,3,
15,94,3258,1,0.05,0.05,
15,95,1869,1,1.55,0.65,
15,96,1785,1,0.05,0.95,
15,97,1864,-1,0.65,0.05,
15,98,1620,1,1.55,2.15,
15,99,1421,-1,0.05,0.05,
15,100,2821,1,0.05,1.55,
15,101,1837,-1,2,0.05,
15,102,2143,-1,0,0.05,
15,103,2303,1,0.35,3,
15,104,1635,-1,0.65,0.05,
15,105,1685,1,0.15,0.35,
15,106,1497,-1,0.05,0.95,
15,107,1461,1,0.65,2.75,
15,108,1409,-1,0.95,0,
15,109,1371,-1,1.55,0.05,
15,110,2282,1,0.05,0.05,
15,111,1547,1,0.2,0.35,
15,112,1484,1,0.15,1.4,
15,113,2392,1,0.95,0.35,
15,114,1386,-1,2.15,0.65,
15,115,1743,1,0,2.9,
15,116,1569,1,0.95,1.85,
15,117,1427,-1,3,0.65,
15,118,2294,1,0,2,
15,119,1490,-1,2.9,0.65,
16,0,5625,1,0.5,0.65,
16,1,3011,-1,0.5,0.2,
16,2,2836,-1,0.8,0.05,
16,3,2489,-1,0.35,0,
16,4,2592,1,0.35,0.2,
16,5,6979,1,0,0.2,
16,6,2678,-1,0.8,0,
16,7,2408,1,0,0.5,
16,8,5748,-1,0.05,0.2,
16,9,2369,-1,0.35,0,
16,10,2099,1,0.05,0.35,
16,11,2751,-1,0.65,0.05,
16,12,6040,1,0.5,0.35,
16,13,3337,-1,0.5,0.2,
16,14,3756,-1,0.95,0.2,
16,15,5066,-1,0.2,0.2,
16,16,1630,1,0,0.95,
16,17,4238,-1,0.8,0.95,
16,18,5891,-1,0.2,0.2,
16,19,5531,1,0.35,0.5,
16,20,4735,-1,0,0.05,
16,21,4583,-1,0.2,0.05,
16,22,2663,-1,0.5,0.2,
16,23,1640,1,0,0.2,
16,24,1840,1,0,0.95,
16,25,3607,1,0,0.05,
16,26,6972,1,0,0,
16,27,2353,-1,0.65,0,
16,28,1913,1,0.2,0.35,
16,29,1857,1,0,0.05,
16,30,2072,1,0,0.5,
16,31,3879,-1,0.05,0.05,
16,32,1814,-1,0.65,0.35,
16,33,1994,-1,0,0,
16,34,3409,-1,0.2,0,
16,35,1475,1,0,0.2,
16,36,6676,1,0.05,0,
16,37,3013,-1,0,0,
16,38,2350,-1,0.5,0,
16,39,2477,1,0,0.35,
16,40,1774,1,0.2,0.5,
16,41,1889,-1,0.2,0.35,
16,42,1475,1,0,0.35,
16,43,3620,-1,0,0,
16,44,4655,1,0.2,0,
16,45,1990,-1,0.05,0,
16,46,1708,1,0,0,
16,47,1510,1,0.35,0.35,
16,48,1843,-1,0.35,0,
16,49,3003,-1,0.65,0.5,
16,50,1585,1,0,0.5,
16,51,1568,-1,0.95,0,
16,52,1692,1,0.2,0.5,
16,53,1234,1,0.2,0.8,
16,54,1422,-1,0.35,0.05,
16,55,1365,1,0.2,0.05,
16,56,1767,-1,0,0.2,
16,57,4305,-1,0.35,0,
16,58,1648,1,0,0.05,
16,59,1798,1,0,0.8,
16,60,1422,1,0.2,0.2,
16,61,2184,-1,0.5,0.2,
16,62,4273,-1,0,0,
16,63,1511,1,0.2,0.95,
16,64,3052,1,0.35,0.8,
16,65,2488,1,0.05,0,
16,66,2853,1,0,0.2,
16,67,2000,-1,0.5,0.05,
16,68,1609,1,0,0.5,
16,69,2723,-1,0.05,0.05,
16,70,3316,-1,0.2,0.05,
16,71,1875,-1,0.2,0,
16,72,1548,1,0.2,0.95,
16,73,1897,1,0.05,0.2,
16,74,1611,1,0.05,0.65,
16,75,1580,1,0.35,0.65,
16,76,2759,1,0,0,
16,77,3632,-1,0.35,0.05,
16,78,2008,1,0,0.8,
16,79,6381,1,0.2,0,
16,80,3125,-1,0,0,
16,81,1659,-1,0.95,0,
16,82,1512,-1,0.8,0.2,
16,83,3430,1,0.05,0.2,
16,84,1727,1,0.35,0.5,
16,85,1074,-1,0.05,0,
16,86,1689,-1,0.95,0,
16,87,1883,1,0,0.65,
16,88,5919,-1,0,0.2,
16,89,3246,1,0,0.2,
16,90,1562,1,0.2,0,
16,91,1391,-1,0.35,0.35,
16,92,1656,1,0,0.35,
16,93,1455,1,0.2,0.05,
16,94,1239,-1,0.5,0,
16,95,2428,1,0,0,
16,96,1316,-1,0.2,0,
16,97,1329,1,0,0.95,
16,98,1224,-1,0.95,0.2,
16,99,2683,1,0,0,
16,100,2001,1,0.05,0.5,
16,101,2319,1,0,0.35,
16,102,1274,-1,0.5,0,
16,103,1627,1,0.2,0.5,
16,104,2387,1,0.95,0.8,
16,105,1711,1,0.05,0.8,
16,106,1138,-1,0.05,0,
16,107,1113,-1,0.2,0,
16,108,1730,1,0.2,0.5,
16,109,2343,-1,0.5,0.35,
16,110,1093,-1,0.35,0.2,
16,111,5067,1,0,0.05,
16,112,2320,-1,0.8,0.35,
16,113,2060,-1,0.5,0,
16,114,1437,-1,0.8,0,
16,115,1630,1,0,0,
16,116,2931,1,0.2,0.2,
16,117,3606,-1,0.05,0.2,
16,118,1686,1,0.05,0.35,
16,119,1836,1,0,0,
17,0,3613,1,0.05,1.4,
17,1,2184,1,0.95,1.55,
17,2,2622,1,1.4,1.85,
17,3,2160,1,0.35,1.55,
17,4,2022,-1,1.55,0,
17,5,1503,-1,2.75,2.3,
17,6,1644,-1,1.7,1.4,
17,7,2063,1,0.65,1.85,
17,8,5256,1,0.5,0.65,
17,9,1899,1,0,1.7,
17,10,2077,1,0,2,
17,11,1437,-1,1.85,0,
17,12,1179,-1,1.7,0,
17,13,3993,1,0,0,
17,14,2048,1,1.85,1.55,
17,15,2449,-1,1.7,0.8,
17,16,4422,1,1.25,1.7,
17,17,2228,-1,2,0.35,
17,18,1824,1,0,1.85,
17,19,1981,1,1.55,1.55,
17,20,1806,-1,1.55,0.95,
17,21,5094,-1,0,0,
17,22,4230,-1,0.35,0.2,
17,23,1933,1,0,0.95,
17,24,2190,-1,1.85,1.1,
17,25,1817,1,2,1.7,
17,26,1841,1,0,1.25,
17,27,2065,-1,1.85,0.5,
17,28,1862,-1,2,1.85,
17,29,3807,-1,0.8,0.2,
17,30,1309,-1,2,0.2,
17,31,1948,1,1.7,1.85,
17,32,1893,1,2.3,1.1,
17,33,6052,1,0.35,0.8,
17,34,2050,1,0.95,2.75,
17,35,2261,1,2,1.7,
17,36,1836,1,0.2,1.4,
17,37,2129,1,0,0.8,
17,38,6925,-1,1.1,1.1,
17,39,1485,-1,1.85,1.55,
17,40,7736,1,0,2,
17,41,2374,1,0.65,0.5,
17,42,4206,1,0.05,0.95,
17,43,1951,1,2.3,2.75,
17,44,3179,-1,1.55,0.35,
17,45,1698,-1,1.1,2.3,
17,46,1479,-1,1.55,0.95,
17,47,2854,1,0.8,1.85,
17,48,1524,-1,1.7,1.25,
17,49,1705,1,1.55,0.8,
17,50,2357,1,0,1.1,
17,51,2471,1,0.8,1.85,
17,52,1658,1,0.5,1.85,
17,53,2018,1,1.55,1.7,
17,54,2153,1,0,0,
17,55,2505,-1,2.75,0.95,
17,56,1749,-1,1.85,1.85,
17,57,1330,-1,1.25,0,
17,58,2261,1,0,1.7,
17,59,1276,-1,0.8,0,
17,60,1850,-1,1.7,2,
17,61,1338,-1,1.85,0.65,
17,62,1802,1,0,1.7,
17,63,1548,-1,1.85,0.8,
17,64,1653,1,1.1,2,
17,65,1296,-1,1.55,1.55,
17,66,2316,1,1.1,1.1,
17,67,1800,1,0,1.55,
17,68,1952,-1,2,0,
17,69,2198,1,1.4,1.55,
17,70,8469,1,2,1.85,
17,71,3221,1,1.7,2,
17,72,2501,1,0,0.95,
17,73,3300,-1,0,0,
17,74,2085,-1,1.4,0.05,
17,75,2036,-1,1.7,0,
17,76,2634,-1,1.55,1.85,
17,77,1993,1,0,1.4,
17,78,2085,1,1.4,1.7,
17,79,2438,-1,0.8,0.8,
17,80,2027,1,0.35,2,
17,81,1926,-1,1.55,1.4,
17,82,1072,-1,0.95,0,
17,83,1082,-1,1.7,0,
17,84,3030,-1,0.95,0,
17,85,2328,1,0,0,
17,86,1446,-1,1.85,1.4,
17,87,2191,1,0.8,1.85,
17,88,2558,-1,0.2,0.35,
17,89,1858,1,0.2,2,
17,90,7679,-1,0,0,
17,91,2363,1,0,1.55,
17,92,1292,-1,1.4,0,
17,93,1551,1,1.55,1.85,
17,94,1420,-1,2,0,
17,95,3093,1,0,1.85,
17,96,1745,-1,2,1.7,
17,97,1592,-1,2,1.1,
17,98,1259,-1,1.7,0,
17,99,2554,-1,1.7,2,
17,100,1967,1,1.7,1.55,
17,101,1965,-1,1.85,2,
17,102,1973,1,0,1.7,
17,103,3087,1,0.95,1.55,
17,104,1736,1,1.1,1.85,
17,105,2558,-1,1.85,1.7,
17,106,1717,1,1.85,1.85,
17,107,2571,1,0.8,1.7,
17,108,5917,-1,0.95,0.05,
17,109,1422,-1,1.1,0,
17,110,1736,1,0.8,0.8,
17,111,1255,-1,1.85,0.8,
17,112,2394,-1,1.85,0.8,
17,113,1324,-1,1.55,0,
17,114,1903,1,1.85,2,
17,115,1909,1,0.2,0.8,
17,116,1671,-1,1.4,0.2,
17,117,1361,-1,0.8,1.55,
17,118,1646,-1,0.8,0.35,
17,119,1505,-1,1.85,0,
18,0,2297,1,1.1,0.5,
18,1,4812,1,0.65,0.35,
18,2,5754,-1,0.95,0.8,
18,3,2440,-1,0.65,0.5,
18,4,1998,-1,0.5,0.5,
18,5,2974,-1,0.8,0.8,
18,6,2795,-1,0.8,0.5,
18,7,2195,1,0.5,0.65,
18,8,2399,1,0.8,0.65,
18,9,2914,1,0.65,0.05,
18,10,1593,-1,0.65,0.35,
18,11,2069,1,0.35,0.5,
18,12,2134,-1,0.35,0.2,
18,13,2582,-1,0.65,0.65,
18,14,2708,1,0.2,0.5,
18,15,2144,-1,0.65,0.8,
18,16,1796,1,0.5,0.35,
18,17,1410,-1,0.35,1.1,
18,18,3040,-1,0.35,0.65,
18,19,1945,-1,0.5,0.5,
18,20,2467,-1,0.95,0.5,
18,21,2359,-1,0.5,0.35,
18,22,3682,1,0.8,0.5,
18,23,2236,-1,0.35,0.2,
18,24,2354,-1,0.05,0.35,
18,25,2460,1,0.5,0.5,
18,26,1666,-1,0.95,0.65,
18,27,1422,-1,0.65,0.35,
18,28,1239,-1,1.4,0.5,
18,29,2887,1,0.5,0.2,
18,30,2156,-1,0.35,0.8,
18,31,2944,1,1.25,0.5,
18,32,2406,1,0.35,0.8,
18,33,1488,-1,0.35,0.35,
18,34,3311,1,0,0.95,
18,35,1422,-1,0.65,0.65,
18,36,1930,1,0.5,1.1,
18,37,2048,1,0.8,0.35,
18,38,3073,-1,0.2,0.5,
18,39,2500,-1,0.2,0.8,
18,40,3978,1,1.1,0.35,
18,41,2441,1,0.8,0.8,
18,42,3181,-1,0.35,0.35,
18,43,2043,1,0.65,1.1,
18,44,2880,1,0.2,0.35,
18,45,2321,-1,0.8,0.2,
18,46,1427,-1,0.65,1.1,
18,47,1922,1,0.5,0.95,
18,48,1869,1,0.5,1.4,
18,49,1363,-1,0.35,0.65,
18,50,2525,1,0.5,0.5,
18,51,2899,1,0.5,1.1,
18,52,2027,1,0.5,0.95,
18,53,1536,1,0.65,0.95,
18,54,2356,1,0.65,0.35,
18,55,1644,1,1.1,0.5,
18,56,1708,-1,0.35,0.8,
18,57,2085,-1,0.65,0.2,
18,58,1578,-1,1.1,0.5,
18,59,1910,-1,0.35,0.5,
18,60,1469,-1,0.35,0.5,
18,61,3235,1,0.5,0.65,
18,62,2905,1,1.4,0.5,
18,63,2275,-1,0.5,0,
18,64,1493,1,0.35,0.65,
18,65,2797,-1,0.5,1.25,
18,66,4786,-1,0.65,0.35,
18,67,2506,1,0.35,0.2,
18,68,3871,1,0.35,0.5,
18,69,3057,1,0.2,0.5,
18,70,2281,-1,0.2,0.5,
18,71,2302,-1,0.5,0.8,
18,72,1903,1,1.25,0.35,
18,73,2072,1,0.35,0.95,
18,74,2793,-1,0.95,0.8,
18,75,1837,1,0.35,0.65,
18,76,2656,1,0.05,0.65,
18,77,9979,-1,0.2,0.35,
18,78,3219,1,0.35,0.5,
18,79,5373,1,0.8,0.65,
18,80,4082,-1,0.5,0.2,
18,81,2163,-1,1.1,0.65,
18,82,2184,-1,0.5,0.2,
18,83,3654,-1,0.5,0.35,
18,84,2203,1,0.35,0.05,
18,85,2279,1,0.8,0.35,
18,86,2094,-1,0.95,0.5,
18,87,1669,1,1.1,0.65,
18,88,1528,1,0.65,0.35,
18,89,2125,-1,0.35,0.5,
18,90,1882,1,0.65,0.8,
18,91,4247,-1,0.95,0.5,
18,92,3677,1,0,0.5,
18,93,4463,-1,0.65,0.65,
18,94,1515,-1,0.5,1.1,
18,95,1873,1,0.35,0.65,
18,96,1803,1,0.8,0.95,
18,97,2140,-1,0.65,0.8,
18,98,2202,-1,0.8,0.95,
18,99,1730,1,0.35,0.65,
18,100,2233,1,0.5,0.5,
18,101,1721,-1,0.35,1.25,
18,102,2022,1,0.65,0.65,
18,103,4752,-1,0.95,0.35,
18,104,2086,1,0.2,0.8,
18,105,1654,-1,0.65,0.5,
18,106,1820,-1,0.5,1.4,
18,107,2117,-1,0.8,0.2,
18,108,5365,1,0.95,0,
18,109,2423,-1,0.5,0.35,
18,110,2918,1,0.5,0.35,
18,111,2160,1,0.8,0.65,
18,112,2741,-1,0.2,0.35,
18,113,3160,-1,0.2,0.65,
18,114,7142,1,0.5,0.2,
18,115,1417,1,0.5,0.95,
18,116,2151,1,0.5,0.35,
18,117,2336,1,0.5,0.8,
18,118,1830,-1,0.8,0.35,
18,119,3016,-1,0.5,0.5,
19,0,2332,-1,0.95,0.95,
19,1,1728,1,0.95,2,
19,2,1884,-1,1.1,0.95,
19,3,2489,-1,0.95,0.95,
19,4,1757,-1,2.15,1.55,
19,5,1703,1,1.85,0.95,
19,6,1493,1,1.55,0.95,
19,7,1569,1,0.95,0.95,
19,8,1847,1,1.55,2,
19,9,3753,-1,1.55,1.1,
19,10,1403,-1,2.15,0.8,
19,11,2108,-1,0.95,1.1,
19,12,1887,1,0.95,1.55,
19,13,2060,1,0.95,0.95,
19,14,1800,-1,0.95,1.1,
19,15,1327,-1,2,0.65,
19,16,1502,-1,0.95,0.95,
19,17,1114,-1,0.95,1.4,
19,18,1230,-1,2,1.55,
19,19,1774,1,0.95,1.25,
19,20,2306,-1,0.95,0.95,
19,21,1324,-1,1.55,0.95,
19,22,2261,1,0.95,0.95,
19,23,1877,-1,0.95,0.95,
19,24,1773,1,1.55,0.95,
19,25,1635,-1,0.95,2,
19,26,1422,1,2,0.95,
19,27,1797,1,1.1,1.4,
19,28,1751,1,0.95,2,
19,29,2013,1,1.1,1.1,
19,30,1426,-1,0.95,0.95,
19,31,1467,-1,1.4,0.95,
19,32,1364,-1,1.55,1.1,
19,33,1782,1,0.65,0.95,
19,34,1608,1,0.95,2,
19,35,1415,-1,1.55,1.4,
19,36,2360,-1,1.1,0.65,
19,37,1688,-1,0.95,0.95,
19,38,1489,-1,0.8,0.95,
19,39,1995,-1,0.95,0.95,
19,40,2148,1,1.55,0.95,
19,41,1307,1,1.1,1.1,
19,42,1535,-1,2,0.95,
19,43,2116,1,0.95,0.95,
19,44,2264,-1,1.85,1.25,
19,45,1679,1,2,0.95,
19,46,2243,-1,1.4,1.1,
19,47,1498,1,0.95,1.1,
19,48,2214,-1,0.95,0.95,
19,49,1724,1,1.1,1.55,
19,50,1512,1,1.4,0.95,
19,51,1322,-1,0.95,1.55,
19,52,1100,-1,0.95,0.95,
19,53,2397,-1,2,0.95,
19,54,2282,1,0.8,0.65,
19,55,1196,-1,1.4,0.95,
19,56,2025,1,0.95,0.95,
19,57,1482,-1,0.95,2,
19,58,1772,1,0.95,0.95,
19,59,1829,1,0.95,0.95,
19,60,1728,1,0.95,0.95,
19,61,1233,-1,0.95,0.5,
19,62,1449,1,1.1,0.95,
19,63,1402,-1,0.95,0.65,
19,64,1352,-1,0.95,1.4,
19,65,1239,-1,1.1,1.1,
19,66,1716,-1,0.95,2,
19,67,1396,1,1.1,0.95,
19,68,1462,1,1.55,1.4,
19,69,1483,1,0.95,0.95,
19,70,1558,1,0.95,1.1,
19,71,1998,1,1.4,0.95,
19,72,1556,1,0.5,1.55,
19,73,1100,-1,1.4,1.4,
19,74,1670,1,0.8,1.1,
19,75,2746,-1,1.55,0.95,
19,76,1332,-1,0.95,1.1,
19,77,1445,1,1.55,2,
19,78,1617,1,0.95,1.4,
19,79,1723,1,0.95,1.55,
19,80,1738,1,0.5,0.95,
19,81,1660,1,0.95,0.8,
19,82,1915,1,1.4,0.95,
19,83,1421,1,0.95,0.95,
19,84,3423,1,2,0.95,
19,85,1133,-1,1.1,0.8,
19,86,1415,1,1.25,1.85,
19,87,2034,1,0.95,2,
19,88,1261,-1,0.95,1.55,
19,89,1214,1,0.95,1.55,
19,90,1220,-1,0.95,0.95,
19,91,1657,-1,1.4,1.55,
19,92,1444,1,1.4,1.55,
19,93,1282,-1,1.55,0.95,
19,94,2040,1,0.65,1.1,
19,95,1723,-1,2,1.55,
19,96,1385,-1,1.1,0.95,
19,97,1563,1,0.95,0.95,
19,98,2138,1,0.95,0.95,
19,99,1766,1,0.65,2,
19,100,1768,1,0.95,1.4,
19,101,1306,1,1.1,1.1,
19,102,1390,1,0.95,1.4,
19,103,1362,1,0.95,0.95,
19,104,1327,-1,0.65,0.8,
19,105,1049,-1,0.95,0.95,
19,106,1424,1,1.55,2.15,
19,107,1230,1,0.95,0.95,
19,108,1473,1,0.95,1.55,
19,109,1314,-1,1.1,1.55,
19,110,1172,-1,1.25,0.95,
19,111,1480,1,0.95,0.95,
19,112,1292,1,1.4,1.4,
19,113,1714,-1,1.55,0.5,
19,114,1573,-1,0.95,1.85,
19,115,3284,-1,2,0.95,
19,116,823,1,0.8,2.15,
19,117,1164,-1,0.95,0.95,
19,118,1663,1,1.1,0.95,
19,119,1361,-1,2,0.95,
20,0,2166,-1,1.1,0.45,
20,1,4390,1,0.8,0.8,
20,2,2062,1,0.8,0.8,
20,3,4324,1,0.35,0.8,
20,4,4448,-1,0.3,0.5,
20,5,2694,1,0.5,1.1,
20,6,1950,1,0.35,1.1,
20,7,9842,1,0.8,0.95,
20,8,4513,1,0.5,0.65,
20,9,2136,1,0.5,0.8,
20,10,2124,-1,1.55,0,
20,11,4294,-1,0.5,0,
20,12,4598,-1,0.65,0.8,
20,13,1695,-1,1.1,0.8,
20,14,2258,1,0.5,0.35,
20,15,1984,-1,0.95,0.8,
20,16,2651,-1,0.5,1.1,
20,17,9449,1,0.5,1.1,
20,18,7442,1,1.1,0.95,
20,19,2865,-1,0.95,0,
20,20,5971,1,1.25,0.65,
20,21,5689,-1,0.8,0.35,
20,22,2156,-1,0.95,0.65,
20,23,1835,-1,0.95,0.5,
20,24,2890,1,0.35,1.4,
20,25,6698,1,0.5,0.3,
20,26,2652,1,0.95,1.1,
20,27,4481,1,0.3,0.95,
20,28,4590,1,1.4,1.1,
20,29,2529,-1,1.1,0,
20,30,4333,1,0.35,0.8,
20,31,4723,-1,1.55,0.95,
20,32,4995,1,1.1,1.4,
20,33,3351,1,0.35,0.65,
20,34,4356,1,0.95,0.3,
20,35,3812,-1,1.1,0.8,
20,36,2687,-1,0.8,0,
20,37,2814,1,0.8,1.4,
20,38,11149,-1,0.95,1.1,
20,39,2857,-1,0.8,0.35,
20,40,2340,-1,0.35,0.5,
20,41,2996,-1,0.95,0.8,
20,42,3176,-1,0.95,1.1,
20,43,1750,-1,1.4,1.1,
20,44,3439,1,1.1,0.5,
20,45,1569,-1,0.8,0.8,
20,46,3036,-1,0.3,0.5,
20,47,1645,-1,0.95,0.5,
20,48,6142,-1,0.8,1.1,
20,49,3802,-1,1.4,1.1,
20,50,1826,1,0,0.5,
20,51,4301,1,0.8,1.1,
20,52,2606,-1,0.95,1.1,
20,53,3080,-1,0.95,1.25,
20,54,5943,-1,1.25,0.65,
20,55,1647,-1,0.8,0.35,
20,56,1917,-1,1.1,1.25,
20,57,1930,1,0.95,1.55,
20,58,3327,1,0.35,0.95,
20,59,1706,-1,0.65,1.1,
20,60,6091,1,0.65,0.95,
20,61,2498,1,0.5,1.4,
20,62,1582,1,0.5,0.95,
20,63,3169,1,0.65,0.65,
20,64,5454,1,0.5,0.5,
20,65,3277,1,0.5,0.3,
20,66,1904,1,0.8,0.65,
20,67,1386,-1,1.1,0.35,
20,68,3081,-1,0.95,0.3,
20,69,1658,1,0,0.65,
20,70,1879,1,0,1.55,
20,71,2136,-1,1.4,0.8,
20,72,6372,1,0.5,1.1,
20,73,3062,-1,0.65,0.45,
20,74,1889,-1,0.8,0.5,
20,75,3898,-1,0.35,0.8,
20,76,1916,-1,0.65,0.35,
20,77,1569,-1,1.1,0.5,
20,78,2240,1,0.35,0.5,
20,79,1611,1,0.45,1.1,
20,80,2077,-1,1.4,0.35,
20,81,1471,-1,0.65,0,
20,82,2810,1,1.1,1.4,
20,83,2418,1,1.1,0.95,
20,84,2539,-1,1.4,0.5,
20,85,1950,-1,0.8,0.35,
20,86,2047,1,1.1,0.95,
20,87,1390,1,0.5,0.95,
20,88,6161,1,1.1,0.8,
20,89,2722,1,0.8,0.35,
20,90,3171,-1,0.65,1.25,
20,91,3857,1,0.65,0.95,
20,92,3022,-1,0.95,0.65,
20,93,1856,1,0.8,1.1,
20,94,2536,-1,0.65,0.65,
20,95,2274,-1,1.1,0.5,
20,96,2358,1,0.8,0.95,
20,97,2207,1,0.8,1.1,
20,98,1585,1,1.1,0.65,
20,99,3072,1,0,0.8,
20,100,1605,-1,0.8,0.35,
20,101,1638,-1,0.5,0.35,
20,102,1612,1,0.45,0.65,
20,103,3207,1,0,1.1,
20,104,1810,1,0.35,0.8,
20,105,2554,1,0.35,0.8,
20,106,1389,-1,1.1,0.95,
20,107,1385,1,0,0.95,
20,108,2947,-1,1.1,0.8,
20,109,3629,-1,0.95,0.35,
20,110,1871,1,0.35,0.8,
20,111,2361,-1,0.3,0.95,
20,112,2423,1,0.65,1.25,
20,113,1515,-1,1.1,0.5,
20,114,1676,1,1.25,1.1,
20,115,4381,-1,0.8,0.8,
20,116,5454,-1,0.5,0.5,
20,117,4313,-1,0.65,0.5,
20,118,4109,1,1.25,0.95,
20,119,3560,-1,1.1,1.4,
21,0,12034,-1,1.1,1.1,
21,1,14157,1,0,0.35,
21,2,4163,1,0.95,0.8,
21,3,6916,-1,1.1,0.65,
21,4,11792,1,0.65,2,
21,5,4040,1,0.95,0.5,
21,6,6381,1,1.25,0.35,
21,7,4779,-1,0.8,0.5,
21,8,3639,-1,1.4,0,
21,9,5037,-1,2,1.55,
21,10,5566,1,0.65,1.4,
21,11,11800,-1,0.65,0.8,
21,12,3849,1,1.1,1.4,
21,13,10563,-1,1.25,2,
21,14,9338,1,0.5,1.1,
21,15,4573,1,0.8,1.1,
21,16,3910,1,0,1.1,
21,17,9826,-1,0.65,0.95,
21,18,4236,1,1.55,0.95,
21,19,3490,1,0,0.65,
21,20,6885,1,0.65,0.65,
21,21,4994,1,1.1,0.95,
21,22,4121,1,1.25,0.95,
21,23,4757,-1,1.55,0.35,
21,24,10833,-1,0.35,0.8,
21,25,2906,1,1.1,1.1,
21,26,5248,-1,0.8,0.8,
21,27,9082,1,1.4,0.95,
21,28,5486,-1,1.4,0.95,
21,29,6309,1,1.55,1.85,
21,30,5442,-1,1.4,0.8,
21,31,8152,-1,0.8,1.25,
21,32,3788,-1,1.25,0.35,
21,33,6541,1,0.65,1.25,
21,34,3275,1,1.25,1.4,
21,35,3104,1,0.65,2,
21,36,18855,1,0.95,0.8,
21,37,3183,1,0.8,1.4,
21,38,2348,1,0.35,0.65,
21,39,3867,-1,0.95,0.65,
21,40,3245,1,1.25,1.85,
21,41,5833,-1,1.85,1.55,
21,42,3560,-1,2,0.65,
21,43,5873,-1,1.1,0.8,
21,44,2132,-1,0.65,0,
21,45,3637,-1,0.8,0.65,
21,46,3744,1,2,0.65,
21,47,4117,-1,1.85,0.5,
21,48,4000,1,1.1,0.5,
21,49,3576,-1,0.65,0.35,
21,50,8449,-1,0.8,0.8,
21,51,5588,1,0.65,1.1,
21,52,3640,-1,0.95,1.1,
21,53,4100,-1,1.4,1.55,
21,54,2749,1,0.8,0.5,
21,55,3314,1,0.95,0.5,
21,56,3039,1,0.65,0.95,
21,57,7761,1,0.8,0.65,
21,58,3861,1,0.95,1.55,
21,59,5059,-1,1.4,1.1,
21,60,5871,-1,1.4,0.8,
21,61,4735,-1,1.25,0.8,
21,62,6461,1,2,1.25,
21,63,5165,1,0.35,1.55,
21,64,5425,-1,0.95,0.65,
21,65,3315,1,0.8,1.85,
21,66,2635,1,0.8,1.4,
21,67,10420,-1,1.4,2,
21,68,8371,-1,0.5,0.65,
21,69,2120,1,0.35,1.25,
21,70,2861,1,1.1,1.1,
21,71,4752,-1,0.95,1.4,
21,72,2226,1,1.1,0.8,
21,73,5255,-1,0.35,0,
21,74,2400,1,0.95,1.25,
21,75,3716,1,0,1.1,
21,76,1837,1,1.55,2,
21,77,4758,-1,0.8,0,
21,78,3912,-1,1.1,0.5,
21,79,3338,1,0,1.4,
21,80,6098,-1,1.85,0.8,
21,81,3291,-1,0.8,0.95,
21,82,1720,-1,0.8,0.95,
21,83,2829,-1,0.95,1.55,
21,84,3359,1,1.1,1.4,
21,85,3770,-1,1.1,1.1,
21,86,4960,-1,1.55,0.95,
21,87,2969,-1,0.5,1.1,
21,88,3282,-1,1.4,1.1,
21,89,4369,-1,1.25,0.65,
21,90,2329,1,0.65,0.8,
21,91,4872,1,2,1.4,
21,92,2227,1,0.65,0.5,
21,93,3280,-1,1.85,1.25,
21,94,2609,-1,1.25,0.95,
21,95,1665,1,0.95,1.4,
21,96,3929,1,0.65,0.95,
21,97,3471,1,0.95,0.65,
21,98,3116,1,0.8,1.4,
21,99,3000,-1,0.8,1.1,
21,100,3541,1,0.8,0.35,
21,101,1532,-1,0.5,0.8,
21,102,5023,-1,0.35,1.25,
21,103,2311,-1,2,0.65,
21,104,1339,-1,0.5,0.95,
21,105,3697,-1,0.5,0.95,
21,106,1828,-1,1.1,0,
21,107,2908,1,1.25,0.8,
21,108,3996,-1,0.65,2,
21,109,1831,1,0,0.8,
21,110,2910,1,0.8,1.25,
21,111,3252,-1,0.95,1.25,
21,112,4456,1,0.5,1.85,
21,113,3181,1,0.5,0.8,
21,114,4799,-1,1.4,1.25,
21,115,2086,-1,1.4,0.8,
21,116,1923,-1,1.4,0.65,
21,117,4144,-1,0.65,0.65,
21,118,3303,1,1.55,1.4,
21,119,1059,-1,1.1,0,
22,0,2559,-1,0.65,0.65,
22,1,3243,1,0.5,0.65,
22,2,2064,1,0.05,0.65,
22,3,4385,-1,0.35,0.5,
22,4,2118,-1,0.65,0,
22,5,1625,1,0.8,0.8,
22,6,1755,-1,0.65,0.95,
22,7,1526,1,0.5,0.65,
22,8,2642,-1,0,0.05,
22,9,2526,1,0.5,0.35,
22,10,4037,1,0.05,0.2,
22,11,1939,-1,1.1,0.35,
22,12,1916,1,0.5,0.8,
22,13,1520,1,0.65,0.95,
22,14,1673,-1,0.5,0.95,
22,15,2184,1,0.35,0.2,
22,16,1556,1,0.65,0.65,
22,17,1668,1,0.65,1.1,
22,18,2674,-1,0.65,0.5,
22,19,2013,1,0.5,0.65,
22,20,6841,1,0.65,0.65,
22,21,2224,1,0.5,0.65,
22,22,1369,-1,0.8,0.35,
22,23,1528,1,0.05,1.4,
22,24,2351,-1,0.65,0,
22,25,1293,1,0.5,0.35,
22,26,1543,1,0.35,0.8,
22,27,1941,-1,0.8,0.5,
22,28,1335,-1,0.5,0.5,
22,29,3715,1,0.5,0.35,
22,30,4297,-1,0.65,0.2,
22,31,1281,-1,1.4,0.8,
22,32,1403,-1,0.8,0,
22,33,1498,-1,0.65,0.2,
22,34,1174,1,0.5,1.4,
22,35,1038,-1,0.5,0.5,
22,36,1214,1,0.65,0.5,
22,37,4034,1,0.95,0.65,
22,38,1700,1,0,0.35,
22,39,3601,-1,0.2,0.35,
22,40,3267,-1,0.65,0.95,
22,41,1221,-1,0.65,0.35,
22,42,1337,-1,0.65,0.2,
22,43,1500,1,1.25,0.8,
22,44,1997,-1,0.65,0.5,
22,45,1388,-1,0.65,0.05,
22,46,1224,-1,0.5,0.5,
22,47,1999,-1,0.65,0.65,
22,48,1633,1,0.5,0.8,
22,49,2524,1,0.2,0.65,
22,50,1251,-1,1.4,0.5,
22,51,1523,-1,1.25,0.35,
22,52,1481,-1,0.2,0.05,
22,53,1757,1,0.65,0.65,
22,54,1123,-1,0.65,0.35,
22,55,1156,-1,0.5,0.2,
22,56,927,-1,0.35,0,
22,57,2162,-1,0,0.5,
22,58,1155,1,0,0.8,
22,59,1423,-1,0.65,0.65,
22,60,1274,1,0.5,0.5,
22,61,1634,-1,0.35,0,
22,62,1141,1,0.35,1.1,
22,63,1302,-1,0.8,0.65,
22,64,1112,1,0.35,1.25,
22,65,1050,1,0.5,0.95,
22,66,2794,1,0.35,0.5,
22,67,1329,-1,0.95,0,
22,68,1740,1,0.5,0.35,
22,69,1077,-1,1.1,0.65,
22,70,1823,-1,0.65,0.2,
22,71,1159,1,0.5,0.65,
22,72,1891,1,0,0.65,
22,73,1298,-1,0.8,0.8,
22,74,1424,1,0,0.65,
22,75,1129,1,0.5,0.5,
22,76,4300,-1,0.65,0.35,
22,77,3121,1,0.65,0.5,
22,78,1119,1,0.2,0.65,
22,79,960,1,1.25,1.4,
22,80,2644,-1,0.65,0.65,
22,81,1012,-1,0.35,0.65,
22,82,1117,-1,0.8,1.4,
22,83,2202,-1,0.05,0,
22,84,1343,1,0.65,0.65,
22,85,1163,1,0,0.35,
22,86,937,1,0.35,0.8,
22,87,1255,-1,1.4,0.05,
22,88,1188,1,0.35,1.25,
22,89,1202,1,0.5,0.5,
22,90,1068,-1,0.95,0.65,
22,91,2115,-1,0.35,0.5,
22,92,1856,1,0.35,0.2,
22,93,1099,1,0.65,0.65,
22,94,1082,1,0.95,0.65,
22,95,1929,-1,0.5,0.5,
22,96,944,1,0.2,0.65,
22,97,1935,1,0.65,0.5,
22,98,1143,1,0.2,0.35,
22,99,996,-1,0.5,0.65,
22,100,1288,1,0.2,0.65,
22,101,1237,-1,0.8,1.25,
22,102,2282,-1,0.35,0.65,
22,103,964,-1,1.4,1.25,
22,104,1414,1,0.65,0.8,
22,105,757,1,0.2,0.5,
22,106,1569,1,0,0.95,
22,107,1043,1,0.95,0.5,
22,108,2245,-1,0.35,0.5,
22,109,1452,1,0.35,0.65,
22,110,1411,-1,1.25,0.35,
22,111,2792,-1,0.5,0,
22,112,1076,-1,0.8,0.35,
22,113,1366,-1,0.65,0.5,
22,114,1130,1,0.5,0.5,
22,115,1282,1,0.5,0.65,
22,116,1450,-1,0.65,0.65,
22,117,990,-1,0.65,0.5,
22,118,1119,-1,0.95,0.5,
22,119,2234,-1,0.8,0.5,
23,0,3425,-1,1.95,0.8,
23,1,5439,-1,0.65,0.5,
23,2,1720,-1,0.95,1.4,
23,3,1913,-1,1.55,1.25,
23,4,4599,1,0.65,0.65,
23,5,2175,1,0.5,0.65,
23,6,2743,1,1.1,0.95,
23,7,5296,-1,0.8,1.1,
23,8,2112,-1,1.55,0.2,
23,9,1486,-1,0.8,1.1,
23,10,2069,-1,1.1,0.2,
23,11,65,1,1.1,0.35,
23,12,3369,1,0.8,0.95,
23,13,1853,-1,0.65,0.35,
23,14,3303,1,0.2,0.95,
23,15,2046,-1,1.4,0.8,
23,16,5054,-1,0.8,0.2,
23,17,2309,-1,1.55,0.8,
23,18,2822,-1,0.5,1.1,
23,19,7363,-1,1.1,0.8,
23,20,2208,1,0.5,0.95,
23,21,2087,1,0.5,1.55,
23,22,4382,1,1.1,1.95,
23,23,6362,-1,0.95,1.1,
23,24,3137,-1,0.95,0.65,
23,25,2547,-1,1.1,1.85,
23,26,1826,-1,1.25,1.1,
23,27,2485,1,0.8,0.8,
23,28,5900,1,0.65,1.25,
23,29,2514,1,2.45,0.95,
23,30,1918,-1,1.25,0.8,
23,31,2565,-1,1.25,0.95,
23,32,2913,1,1.1,0.95,
23,33,1810,1,1.1,1.25,
23,34,2227,1,0.2,1.4,
23,35,2948,-1,0.35,0.5,
23,36,1909,-1,0.5,1.1,
23,37,2377,-1,0.95,0.5,
23,38,6149,1,0.65,1.1,
23,39,3803,1,0.5,0.95,
23,40,5183,-1,1.25,1.1,
23,41,1494,-1,1.4,1.1,
23,42,1966,1,0.8,1.55,
23,43,2533,-1,0.8,0.8,
23,44,2525,1,0.95,0.65,
23,45,4740,-1,1.1,0.95,
23,46,2226,1,0.65,0.5,
23,47,3155,1,0.95,1.1,
23,48,3204,1,0.8,0.5,
23,49,3779,-1,1.25,0.95,
23,50,2695,-1,1.55,1.1,
23,51,2907,1,1.1,1.25,
23,52,1869,1,0.95,0.95,
23,53,2805,-1,0.8,0.8,
23,54,6932,-1,1.25,0.65,
23,55,1250,1,0.8,1.4,
23,56,3460,1,0.65,1.4,
23,57,3171,-1,0.5,0.95,
23,58,2860,1,2.45,0.65,
23,59,1776,1,1.25,1.55,
23,60,1836,1,0.2,0.8,
23,61,1614,-1,1.85,0.95,
23,62,3235,1,0.8,1.25,
23,63,1335,-1,1.1,0.35,
23,64,1454,1,0.8,1.95,
23,65,3421,1,0.5,0.65,
23,66,2655,1,0.8,1.1,
23,67,2018,1,0.65,0.65,
23,68,1515,-1,0.65,0.95,
23,69,1509,-1,0.35,1.1,
23,70,1696,-1,1.1,0.5,
23,71,3518,-1,1.25,0.5,
23,72,2809,1,0.8,1.1,
23,73,2136,1,1.1,0.65,
23,74,1685,-1,1.4,0.95,
23,75,2499,1,0.2,1.1,
23,76,5675,1,0.5,0.95,
23,77,1740,-1,1.95,1.1,
23,78,1411,-1,1.25,1.1,
23,79,2134,-1,1.1,1.4,
23,80,7350,-1,0.95,1.1,
23,81,3333,1,0.8,0.2,
23,82,3419,-1,1.1,0.8,
23,83,2172,-1,0.5,0.35,
23,84,3181,1,0.95,0.2,
23,85,2633,-1,1.4,0.65,
23,86,6330,1,0.95,0.8,
23,87,2330,1,0.95,1.25,
23,88,7503,1,1.1,0.95,
23,89,2384,-1,0.65,0.95,
23,90,2130,1,0.95,0.65,
23,91,3240,1,0.95,0.5,
23,92,2495,-1,0.95,2.45,
23,93,1922,1,1.1,1.55,
23,94,2705,-1,0.5,0.8,
23,95,1954,1,0.8,0.8,
23,96,3054,-1,0.95,0.95,
23,97,3337,-1,1.4,0.2,
23,98,1650,1,1.4,1.1,
23,99,1741,-1,1.85,1.1,
23,100,2306,1,1.1,1.4,
23,101,5150,-1,1.1,1.25,
23,102,2078,1,1.1,0.8,
23,103,2328,-1,1.55,1.25,
23,104,2194,1,0.2,0.8,
23,105,2378,-1,1.55,0.5,
23,106,8308,1,0.2,1.55,
23,107,2344,1,0.95,1.1,
23,108,6825,-1,1.1,0.5,
23,109,3431,-1,0.95,0.5,
23,110,1966,1,0.95,0.5,
23,111,1945,1,0.5,1.25,
23,112,3135,1,0.35,1.1,
23,113,3539,-1,0.65,0.95,
23,114,2596,1,0.35,0.65,
23,115,1476,1,0.65,2.45,
23,116,5114,1,1.25,1.55,
23,117,2925,1,1.1,0.8,
23,118,2235,1,0.95,1.85,
23,119,2440,1,0.95,1.25,
24,0,7111,1,0.5,1.4,
24,1,33945,1,1.25,1.7,
24,2,6109,1,0.35,0.95,
24,3,3374,1,0.5,0.95,
24,4,4336,1,0.8,1.1,
24,5,2956,1,0.5,0.95,
24,6,7367,-1,1.1,0.95,
24,7,4784,1,0.95,1.4,
24,8,2772,1,0,2.15,
24,9,10124,1,1.55,0.95,
24,10,11435,-1,1.1,0.65,
24,11,11269,-1,2.3,1.4,
24,12,9419,1,1.4,1.85,
24,13,3909,-1,1.1,0.35,
24,14,8187,1,0.8,0.8,
24,15,19172,-1,1.25,0.8,
24,16,15773,1,1.1,1.1,
24,17,3452,-1,2.6,0.5,
24,18,6223,1,1.25,1.1,
24,19,3892,-1,1.1,0,
24,20,3361,-1,1.1,1.1,
24,21,7343,-1,0.8,1.25,
24,22,2755,1,0.5,0.95,
24,23,3256,1,0.8,0.8,
24,24,2297,-1,1.1,0,
24,25,7873,1,0.35,0.8,
24,26,4704,-1,2.6,1.1,
24,27,2886,1,0.5,1.7,
24,28,2563,-1,0.95,1.4,
24,29,2995,1,0,0.65,
24,30,20658,-1,0.8,1.25,
24,31,12138,-1,1.1,1.1,
24,32,2992,1,0.5,0.5,
24,33,1949,-1,0.95,0,
24,34,4130,1,0.35,0.5,
24,35,8735,1,1.1,0.35,
24,36,5870,-1,1.4,0.8,
24,37,3969,1,0.95,1.1,
24,38,6710,1,0.8,2.45,
24,39,14859,1,2.15,1.1,
24,40,8041,-1,0.35,1.1,
24,41,3066,-1,0.35,0.65,
24,42,4360,-1,1.7,1.25,
24,43,3496,1,0.15,1.4,
24,44,2890,1,1.1,1.55,
24,45,9437,1,0,0.5,
24,46,3401,-1,2.15,0,
24,47,4197,-1,0.8,0.8,
24,48,7472,1,0.65,1.25,
24,49,2349,-1,1.1,0.95,
24,50,2884,-1,0.95,0.5,
24,51,4860,1,1.1,1.1,
24,52,2922,-1,2.45,0.8,
24,53,2108,-1,0.8,0.8,
24,54,2857,-1,0.5,0.35,
24,55,1291,1,1.1,2.6,
24,56,1437,1,0.35,2.3,
24,57,3857,1,1.1,1.4,
24,58,4732,-1,1.55,0.35,
24,59,2303,1,0.5,1.1,
24,60,7581,-1,1.2,0.35,
24,61,1926,-1,0.65,0,
24,62,6325,-1,2.45,1.2,
24,63,2120,1,0.35,1.1,
24,64,1299,-1,1.25,0.5,
24,65,1343,-1,0.95,0.5,
24,66,2568,1,0.8,0.8,
24,67,1847,1,1.25,1.55,
24,68,1827,-1,1.7,0.5,
24,69,1786,1,0.8,1.4,
24,70,2415,-1,0.65,0.35,
24,71,7703,1,1.25,0.8,
24,72,3096,1,1.4,2.3,
24,73,11118,1,1.1,1.1,
24,74,6112,1,0.65,1.85,
24,75,3894,-1,0.8,1.1,
24,76,1440,1,0.5,2.6,
24,77,6536,1,1.25,0.8,
24,78,3515,-1,0.35,0.15,
24,79,3909,-1,1.25,1.25,
24,80,3685,1,0.35,1.55,
24,81,1695,-1,0.95,0.35,
24,82,3089,-1,1.55,1.1,
24,83,2639,-1,1.4,0.15,
24,84,3832,-1,0.5,0,
24,85,2612,1,0.65,0.35,
24,86,1435,1,0,0.95,
24,87,2264,-1,1.55,1.25,
24,88,1891,-1,1.85,0.65,
24,89,2106,-1,1.4,0.95,
24,90,1525,1,0.5,1.25,
24,91,3216,-1,1.4,1.1,
24,92,2630,1,0,1.1,
24,93,1993,-1,1.85,1.4,
24,94,3829,1,1.25,1.25,
24,95,5505,-1,1.4,0.5,
24,96,1725,-1,0.95,0.5,
24,97,1876,-1,2.3,0.35,
24,98,2562,1,1.4,0.95,
24,99,3448,1,0.35,0.65,
24,100,4481,-1,1.25,0.65,
24,101,6133,1,0.95,1.1,
24,102,2596,1,0.8,1.25,
24,103,4222,-1,1.1,0.8,
24,104,2615,1,0.35,1.1,
24,105,4245,1,0.65,1.1,
24,106,8924,-1,1.1,2.15,
24,107,6909,1,0.35,1.2,
24,108,2951,1,1.2,2.45,
24,109,8714,-1,0.95,1.55,
24,110,2416,1,0.15,0.35,
24,111,6034,1,1.1,0.8,
24,112,3032,-1,1.1,0.5,
24,113,2906,-1,0.8,0.35,
24,114,2047,-1,1.1,0.35,
24,115,1822,1,0,1.1,
24,116,1918,-1,0.8,0.8,
24,117,2955,-1,0.5,0.5,
24,118,3366,-1,1.1,1.25,
24,119,10736,1,1.1,1.1,
25,0,1908,1,0.95,0.5,
25,1,2481,-1,0.8,0.95,
25,2,2880,1,1.4,0.95,
25,3,3793,1,0.2,0.35,
25,4,1333,-1,0.8,0.6,
25,5,2692,-1,1.1,0.95,
25,6,2027,1,0.5,0.95,
25,7,4022,-1,0.2,0.35,
25,8,2724,1,0.95,1.1,
25,9,6172,1,0,0.8,
25,10,1983,1,0,0.95,
25,11,1697,1,0.5,1.1,
25,12,3018,-1,0.5,0,
25,13,1783,1,0.95,0.5,
25,14,1604,1,0.8,1.1,
25,15,2207,-1,0.65,0,
25,16,2674,1,0,1.25,
25,17,2506,1,0.95,0.8,
25,18,2316,1,0.35,1.1,
25,19,3242,-1,0.95,0.35,
25,20,2655,-1,0.8,1.1,
25,21,3082,-1,0,0,
25,22,1720,1,0.6,1.1,
25,23,2461,-1,0.5,0.05,
25,24,6341,-1,0,1.1,
25,25,9649,-1,1.1,0.2,
25,26,1898,-1,0.95,0.2,
25,27,5674,-1,0.8,0.35,
25,28,2794,-1,1.25,0.5,
25,29,2199,1,0.05,1.4,
25,30,2170,-1,0.8,0,
25,31,2342,-1,0.5,0.5,
25,32,2132,-1,0.95,0,
25,33,4164,-1,0.5,0.95,
25,34,2830,1,0,0.5,
25,35,1766,-1,1.1,0.95,
25,36,3317,-1,1.55,1.1,
25,37,2749,-1,0.8,0.5,
25,38,1951,-1,0.95,0.95,
25,39,2361,-1,0.95,0.35,
25,40,3815,-1,0.5,0,
25,41,1665,-1,0.95,0.05,
25,42,1689,1,0.2,0.95,
25,43,5042,1,0.95,1.1,
25,44,4536,1,0.95,0.8,
25,45,1787,1,0.5,0.8,
25,46,2262,-1,0,0,
25,47,2005,-1,0.8,0.8,
25,48,1956,1,0.35,0.2,
25,49,4505,1,0.8,1.4,
25,50,2231,-1,0.2,0.5,
25,51,1416,1,0.5,0.5,
25,52,1551,1,0.2,0.95,
25,53,2011,-1,0.8,0,
25,54,4379,1,0.35,0.8,
25,55,1423,1,0.95,1.25,
25,56,4833,-1,1.1,0.95,
25,57,1374,1,0,0.65,
25,58,3115,1,0.8,0.8,
25,59,1793,1,0.95,0.8,
25,60,6910,-1,0.8,0.5,
25,61,1563,1,0,0.5,
25,62,8355,1,0.2,1.1,
25,63,1516,-1,0.8,0.5,
25,64,1940,-1,0.5,0,
25,65,2299,-1,1.4,0,
25,66,10498,1,1.1,0,
25,67,1778,-1,0.65,1.55,
25,68,5679,1,1.25,0.8,
25,69,1858,-1,0.95,1.4,
25,70,2113,-1,1.1,0,
25,71,1471,-1,1.25,0,
25,72,1922,1,0.5,1.25,
25,73,1529,-1,0.5,0.95,
25,74,1665,-1,1.1,0.2,
25,75,5554,-1,1.1,0.8,
25,76,1369,1,0,0.95,
25,77,4034,1,0.35,0.95,
25,78,9257,1,0.95,1.1,
25,79,4504,-1,0.2,0.05,
25,80,2617,1,1.1,0.8,
25,81,1412,-1,0.95,0.5,
25,82,1448,-1,0.8,1.25,
25,83,1230,-1,1.25,0.95,
25,84,1114,1,0,1.1,
25,85,1330,1,0,0,
25,86,1927,1,0.05,0.5,
25,87,1582,-1,0.5,0.95,
25,88,1601,1,1.1,1.55,
25,89,1302,1,0.35,0.95,
25,90,6536,1,0.8,0.8,
25,91,4034,1,1.4,0.8,
25,92,4188,-1,0.95,0.5,
25,93,1462,-1,1.4,0.05,
25,94,1970,-1,0,0.8,
25,95,1820,1,0.5,0.5,
25,96,8302,1,0.05,0.2,
25,97,1882,-1,1.1,0.35,
25,98,1358,-1,0.8,0.8,
25,99,2853,1,0,0,
25,100,2021,-1,1.1,0.6,
25,101,1297,1,0,0.5,
25,102,2395,1,0.95,1.1,
25,103,1599,1,0.95,0.95,
25,104,8105,-1,0.35,0.2,
25,105,1357,-1,0.5,0.5,
25,106,2938,-1,1.1,0.95,
25,107,6266,-1,0.8,0.95,
25,108,1891,-1,0.8,0.95,
25,109,2233,-1,0.95,0.2,
25,110,1721,1,0.6,0.8,
25,111,1578,1,0.2,1.1,
25,112,1220,1,0,1.4,
25,113,1242,-1,1.1,0.5,
25,114,1366,1,1.55,0.65,
25,115,3508,1,0.05,0.95,
25,116,1436,-1,0.5,0.2,
25,117,1395,1,0.5,0.8,
25,118,1369,-1,0.95,0,
25,119,1110,1,0.5,0.8,
26,0,3437,-1,1.7,2,
26,1,1574,-1,0.65,0.8,
26,2,1841,1,0,0.65,
26,3,1472,-1,0.95,1.55,
26,4,6201,1,0.95,0.65,
26,5,1767,-1,0.65,0.5,
26,6,4353,1,1.55,0.2,
26,7,3805,-1,0.65,0.65,
26,8,9779,-1,2,1.1,
26,9,2370,1,1.1,1.1,
26,10,4067,-1,0.65,0.65,
26,11,2046,1,0,1.1,
26,12,1872,1,0.95,0.95,
26,13,1321,-1,1.1,0.45,
26,14,1820,-1,0.8,0.5,
26,15,4067,-1,0.65,0.5,
26,16,2871,-1,0.95,0,
26,17,3271,-1,0.65,0.65,
26,18,2083,-1,1.1,1.55,
26,19,3472,-1,1.1,0.65,
26,20,2244,-1,0.65,0.8,
26,21,3108,-1,0.5,0,
26,22,2437,-1,0.65,1.1,
26,23,3956,1,0.5,0.8,
26,24,2942,-1,1.1,0.65,
26,25,1276,-1,0.65,0.5,
26,26,1420,1,0.65,0.95,
26,27,3350,1,1.55,1.1,
26,28,1907,-1,0.95,0.5,
26,29,2669,1,0.5,2,
26,30,3838,1,0.65,1.25,
26,31,2640,1,1.55,0.65,
26,32,2521,-1,1.1,0.95,
26,33,3303,1,0.95,0.15,
26,34,1862,1,0.65,0.65,
26,35,1604,-1,0.15,0.5,
26,36,3223,-1,1.55,0.8,
26,37,2036,-1,0.8,1.1,
26,38,12426,-1,0.65,1.1,
26,39,1264,-1,0.65,1.1,
26,40,1838,1,0.5,0.15,
26,41,2049,1,0.5,0.65,
26,42,1727,-1,0.95,0.65,
26,43,2123,1,0.5,2,
26,44,3190,-1,0.95,0.95,
26,45,1249,-1,0.95,1.1,
26,46,1464,1,2,1.7,
26,47,1786,1,0.5,1.7,
26,48,4234,-1,1.25,0.65,
26,49,3708,1,0.5,0.65,
26,50,2749,1,1.55,0.65,
26,51,1355,-1,0.8,1.25,
26,52,2420,-1,0.65,0.5,
26,53,2499,1,0,1.55,
26,54,5827,1,2,0.65,
26,55,2056,1,0,0.5,
26,56,1957,1,1.1,0.65,
26,57,2253,1,0.5,0.65,
26,58,1630,-1,0.65,0.45,
26,59,2189,-1,2,1.55,
26,60,1313,1,0.8,0.65,
26,61,1860,-1,1.1,1.55,
26,62,2395,-1,0.65,0.95,
26,63,1563,1,0.95,0.65,
26,64,4231,1,0.5,1.55,
26,65,7328,-1,0,0.95,
26,66,1742,1,0.95,1.1,
26,67,2905,1,1.1,0.65,
26,68,2894,1,0.8,1.55,
26,69,2021,-1,0.15,0.95,
26,70,2253,1,0,0.2,
26,71,2382,-1,0.65,1.1,
26,72,2156,1,1.1,0.65,
26,73,3401,-1,0.8,1.55,
26,74,1905,1,0.95,0.95,
26,75,1177,-1,0.65,0.5,
26,76,1960,1,0.45,1.1,
26,77,2120,-1,2,0.5,
26,78,1406,1,0,1.55,
26,79,3300,-1,0,0,
26,80,2817,-1,0.65,2,
26,81,1891,-1,1.1,0,
26,82,2356,-1,0.2,1.55,
26,83,2166,1,1.1,0.65,
26,84,3883,-1,0.65,0.65,
26,85,1483,1,0,0.95,
26,86,1874,1,0.5,0.8,
26,87,1784,-1,2,0.5,
26,88,1551,1,1.55,1.1,
26,89,3102,1,1.1,2,
26,90,1514,1,0.5,0.65,
26,91,1830,1,0.8,0.65,
26,92,2044,-1,0.8,0.5,
26,93,2436,-1,0.95,0,
26,94,3291,1,0.65,0.65,
26,95,1223,1,0.5,0.95,
26,96,1105,-1,0.65,1.55,
26,97,1676,1,1.55,0.95,
26,98,2011,1,1.55,0.8,
26,99,1833,1,0.65,0.65,
26,100,1647,1,1.1,0.8,
26,101,2126,1,0.65,1.1,
26,102,1879,-1,0.95,0.95,
26,103,1624,1,0.45,0.65,
26,104,2532,1,0,0,
26,105,1637,1,1.55,2,
26,106,1500,-1,1.7,0.5,
26,107,2111,-1,1.55,0,
26,108,2134,-1,0.65,0.65,
26,109,1782,-1,0.2,0,
26,110,2798,-1,0.65,1.1,
26,111,2309,-1,0.65,1.55,
26,112,1659,-1,0.65,0,
26,113,3478,-1,1.1,1.1,
26,114,2519,1,1.25,0.8,
26,115,2088,-1,1.55,0,
26,116,2521,-1,1.55,0.5,
26,117,1261,1,0.5,0.65,
26,118,1682,1,1.1,0.95,
26,119,2238,-1,0.65,0.95,
27,0,8714,-1,3,3,
27,1,4378,-1,1.4,0.95,
27,2,7415,-1,1.1,3,
27,3,4597,-1,0.65,1.4,
27,4,2517,-1,2,0.95,
27,5,2222,-1,2.45,2,
27,6,2352,-1,2,0,
27,7,3681,-1,2.75,2.9,
27,8,4549,-1,3,3,
27,9,3569,1,1.4,2.9,
27,10,2612,1,0.95,3,
27,11,3495,-1,1.25,0.95,
27,12,4971,1,0,3,
27,13,6652,-1,0.95,0.95,
27,14,2791,1,1.55,2.6,
27,15,3801,1,1.85,2,
27,16,1448,1,0.95,0.95,
27,17,6261,-1,3,0.95,
27,18,5281,-1,1.55,0.95,
27,19,5041,-1,2.15,2,
27,20,3670,1,0.2,0.8,
27,21,2575,1,2,3,
27,22,2487,-1,0.5,0.95,
27,23,1506,1,0.95,2.75,
27,24,1834,-1,1.55,0.5,
27,25,2049,-1,3,0.95,
27,26,2743,1,0.2,2,
27,27,1523,1,0.95,3,
27,28,3467,-1,1.55,0,
27,29,2924,-1,3,0.95,
27,30,1463,-1,2.6,0.95,
27,31,4632,1,0,0.95,
27,32,2777,1,0.95,3,
27,33,2657,1,2,1.55,
27,34,1578,1,0,1.1,
27,35,2279,1,0.65,1.55,
27,36,6952,1,2,1.25,
27,37,1709,1,0,0,
27,38,3970,-1,0.8,2.9,
27,39,3983,1,2.9,2.6,
27,40,2858,-1,3,0.95,
27,41,2422,-1,2,1.85,
27,42,1225,1,1.85,1.4,
27,43,2250,1,0,2,
27,44,1530,-1,1.55,0.65,
27,45,1339,1,2.9,0.8,
27,46,1950,-1,0.95,0.95,
27,47,1356,1,0.95,3,
27,48,2069,-1,3,2,
27,49,2782,-1,1.55,2,
27,50,1648,-1,3,0.95,
27,51,1202,1,0.95,2.6,
27,52,2789,1,0.95,2,
27,53,5581,-1,2.45,0.8,
27,54,1726,-1,0.95,1.85,
27,55,4274,-1,3,3,
27,56,2813,1,0.95,2.75,
27,57,1951,1,2,2.75,
27,58,940,-1,3,0,
27,59,1636,-1,1.4,0.65,
27,60,3438,-1,0.95,2,
27,61,1607,1,0.95,0.95,
27,62,1529,1,2.6,2.9,
27,63,2853,-1,0.95,0.5,
27,64,9474,1,2,1.55,
27,65,5642,1,0.95,1.25,
27,66,1744,-1,0,0,
27,67,1389,-1,1.25,2,
27,68,1321,1,0.95,3,
27,69,1536,1,1.85,3,
27,70,2787,1,0.5,0.95,
27,71,1579,1,1.55,3,
27,72,4024,-1,3,0.95,
27,73,2864,-1,3,3,
27,74,1351,1,0.95,0.95,
27,75,3140,-1,0.8,0.95,
27,76,2025,1,0.95,0.95,
27,77,1811,-1,2.9,1.4,
27,78,1187,1,0,2.15,
27,79,3036,-1,2,0.5,
27,80,1606,1,0,1.55,
27,81,1766,1,1.85,0.95,
27,82,1686,-1,0.95,0,
27,83,1342,-1,3,0.95,
27,84,1358,-1,0.95,0.8,
27,85,1367,-1,2,0.2,
27,86,1659,-1,2.75,2,
27,87,1768,1,3,3,
27,88,1622,-1,0.95,2,
27,89,1539,-1,2.75,0.95,
27,90,1711,-1,1.1,0,
27,91,1802,1,2,2.15,
27,92,1543,-1,2.6,1.55,
27,93,2737,1,2,0.95,
27,94,989,1,0.95,2.6,
27,95,1769,1,3,3,
27,96,1255,-1,0.95,0.5,
27,97,1453,-1,0.8,0.2,
27,98,1189,1,0.95,0.95,
27,99,1200,1,0.5,2,
27,100,1125,1,1.4,1.85,
27,101,3310,-1,2,0.95,
27,102,1458,1,2,2.45,
27,103,1090,-1,2.15,0,
27,104,1318,-1,0.95,0.95,
27,105,1803,-1,1.55,2,
27,106,2851,-1,3,1.1,
27,107,1091,1,2.9,2.75,
27,108,1535,-1,0.95,1.55,
27,109,881,-1,3,1.85,
27,110,838,-1,3,1.55,
27,111,952,1,2.6,0.95,
27,112,1488,-1,0.95,0.95,
27,113,1253,1,0.95,3,
27,114,1180,1,0.95,3,
27,115,1772,-1,2.75,0.95,
27,116,1550,-1,0.5,1.55,
27,117,1010,1,0.95,1.4,
27,118,1210,1,0.8,2.45,
27,119,1611,-1,0.95,0.95,
28,0,2917,-1,2,0.95,
28,1,3504,1,0.95,1.85,
28,2,4543,1,0.65,0.8,
28,3,4975,-1,1.85,0.5,
28,4,5817,1,0.65,1.1,
28,5,2361,1,0.5,0.5,
28,6,5476,-1,0.65,1.25,
28,7,2072,-1,2.75,1.25,
28,8,4965,-1,0.95,0.65,
28,9,4201,1,0.65,1.4,
28,10,5258,1,1.85,1.4,
28,11,7786,-1,2,1.1,
28,12,5668,-1,2,1.25,
28,13,3212,1,2.45,1.1,
28,14,6939,-1,2,2,
28,15,2346,1,0.5,1.55,
28,16,2072,1,0.5,0.65,
28,17,3012,1,1.1,0.65,
28,18,3675,1,0.95,0.8,
28,19,6583,-1,2,0.8,
28,20,5290,1,0.5,2,
28,21,5446,-1,1.25,0.5,
28,22,5345,1,0.95,1.1,
28,23,7740,-1,0.8,0.65,
28,24,5653,1,1.1,1.1,
28,25,5366,-1,1.1,0.95,
28,26,5371,-1,0.95,1.7,
28,27,5036,1,1.55,0.65,
28,28,2415,-1,0.95,0.95,
28,29,4180,1,1.1,0.65,
28,30,2941,1,0.65,0.95,
28,31,2476,1,0.5,2.45,
28,32,7361,1,2,2.6,
28,33,3518,-1,0.95,0.65,
28,34,4217,-1,2,0.8,
28,35,2952,1,1.1,0.95,
28,36,5377,1,0.8,0.65,
28,37,1980,-1,1.55,1.1,
28,38,4057,1,1.7,1.55,
28,39,9678,-1,0.95,2,
28,40,5485,1,0.8,0.95,
28,41,4688,1,1.1,2,
28,42,2575,1,0.5,1.25,
28,43,6537,1,2.6,0.8,
28,44,6484,1,1.1,2,
28,45,3022,-1,0.95,0.35,
28,46,6085,-1,1.1,1.55,
28,47,4060,1,1.25,0.65,
28,48,4339,1,1.1,0.65,
28,49,2191,-1,2.45,0.5,
28,50,2684,1,0.5,0.5,
28,51,4395,1,1.85,2,
28,52,1964,1,0.8,2,
28,53,1442,-1,1.55,0.5,
28,54,2537,1,2,2,
28,55,6978,-1,0.95,1.1,
28,56,1193,-1,0.65,0.5,
28,57,4139,-1,0.65,1.1,
28,58,4694,1,1.25,2,
28,59,3001,-1,1.4,0.65,
28,60,2756,-1,0.65,0.95,
28,61,3763,1,0.8,0.65,
28,62,3310,-1,2,0.35,
28,63,3880,1,0.95,2,
28,64,2908,-1,2.75,0.95,
28,65,1819,-1,0.65,1.55,
28,66,2119,-1,0.65,0.95,
28,67,2914,-1,1.1,0.95,
28,68,1714,1,0.8,2,
28,69,6710,-1,1.55,0.5,
28,70,1867,1,0.65,0.95,
28,71,5046,1,0.35,2,
28,72,3754,-1,0.35,0.95,
28,73,1970,1,1.25,2.75,
28,74,3659,1,1.1,0.8,
28,75,1978,1,1.25,2,
28,76,4997,-1,1.1,1.1,
28,77,2579,1,0.5,0.65,
28,78,3715,1,0.5,1.85,
28,79,5174,-1,0.65,0.8,
28,80,4110,-1,2,0.95,
28,81,4663,1,0.95,1.85,
28,82,2029,1,0.65,0.8,
28,83,3071,-1,1.85,0.5,
28,84,5185,1,0.65,1.1,
28,85,6989,1,0.5,0.5,
28,86,3061,-1,0.65,1.25,
28,87,2334,-1,2.75,1.25,
28,88,4556,-1,0.95,0.65,
28,89,2180,1,0.65,1.4,
28,90,3245,1,1.85,1.4,
28,91,4539,-1,2,1.1,
28,92,5032,-1,2,1.25,
28,93,2979,1,2.45,1.1,
28,94,2209,-1,2,2,
28,95,2813,1,0.5,1.55,
28,96,1594,1,0.5,0.65,
28,97,4196,1,1.1,0.65,
28,98,3355,1,0.95,0.8,
28,99,4956,-1,2,0.8,
28,100,2579,1,0.5,2,
28,101,4149,1,1.25,0.5,
28,102,2785,1,0.95,1.1,
28,103,5262,1,0.8,0.65,
28,104,4217,1,1.1,1.1,
28,105,4223,-1,1.1,0.95,
28,106,2335,-1,0.95,1.7,
28,107,3289,1,1.55,0.65,
28,108,2449,-1,0.95,0.95,
28,109,3210,1,1.1,0.65,
28,110,2363,1,0.65,0.95,
28,111,4057,1,0.5,2.45,
28,112,5577,1,2,2.6,
28,113,2254,1,0.95,0.65,
28,114,2996,-1,2,0.8,
28,115,2767,1,1.1,0.95,
28,116,4317,1,0.8,0.65,
28,117,2777,-1,1.55,1.1,
28,118,2574,1,1.7,1.55,
28,119,2762,1,0.95,2,
29,0,3623,1,0.95,1.1,
29,1,4017,1,0.95,1.25,
29,2,2373,-1,0.8,0.8,
29,3,4714,-1,1.1,0.8,
29,4,2788,1,0.95,1.1,
29,5,5247,1,1.1,1.25,
29,6,3628,-1,1.25,0.8,
29,7,2877,-1,1.25,1.55,
29,8,2493,1,1.55,0.65,
29,9,3252,1,0.8,1.25,
29,10,3070,-1,2,1.4,
29,11,2026,-1,1.7,1.7,
29,12,2406,1,0.5,1.1,
29,13,1732,-1,0.8,1.55,
29,14,1897,-1,1.1,0.8,
29,15,5175,1,1.25,0.8,
29,16,2070,-1,1.1,1.25,
29,17,3089,-1,1.7,1.1,
29,18,2017,-1,1.1,1.25,
29,19,3367,1,1.1,1.1,
29,20,2607,1,0.95,1.1,
29,21,1931,1,0.95,0.8,
29,22,3657,-1,1.7,1.1,
29,23,3806,-1,2,0.8,
29,24,6361,-1,0.8,1.1,
29,25,3210,1,0.8,1.4,
29,26,5723,-1,1.55,0.8,
29,27,2940,-1,1.25,0.8,
29,28,639,-1,1.7,1.25,
29,29,4636,-1,0.95,1.1,
29,30,1729,-1,1.7,0.95,
29,31,2868,1,0.8,0.8,
29,32,1568,-1,0.8,1.25,
29,33,2495,-1,0.95,0.95,
29,34,1470,-1,0.65,0.95,
29,35,3695,1,0.95,0.8,
29,36,2112,-1,0.8,0.8,
29,37,3559,-1,1.25,1.1,
29,38,3224,1,1.1,1.25,
29,39,1581,-1,1.25,2.15,
29,40,5120,-1,1.25,0.95,
29,41,2286,-1,1.55,0.8,
29,42,4756,-1,0.8,0.95,
29,43,2604,1,1.1,1.7,
29,44,5451,1,1.7,0.95,
29,45,1921,-1,1.25,1.1,
29,46,3510,1,0.8,0.95,
29,47,2106,-1,1.25,1.7,
29,48,3600,1,0.95,1.7,
29,49,4568,1,2.15,1.25,
29,50,5080,-1,0.8,2,
29,51,4753,1,1.1,1.25,
29,52,2928,1,1.25,1.1,
29,53,4488,1,0.95,0.5,
29,54,3548,1,0.8,2,
29,55,4946,-1,1.7,0.8,
29,56,1853,-1,0.8,0.8,
29,57,2153,1,1.25,1.7,
29,58,1783,-1,1.4,0.8,
29,59,2052,1,2.15,0.8,
29,60,6710,-1,0.8,0.8,
29,61,1381,-1,1.25,2,
29,62,2520,-1,1.25,2,
29,63,4028,1,0.95,1.25,
29,64,2755,1,0.8,1.1,
29,65,1867,1,1.1,0.8,
29,66,1915,1,0.8,1.25,
29,67,1781,-1,1.1,1.1,
29,68,4124,-1,1.1,0.95,
29,69,4803,1,0.8,1.1,
29,70,2029,1,1.7,0.8,
29,71,2234,1,1.55,1.55,
29,72,2111,-1,0.8,0.95,
29,73,3826,-1,1.25,1.1,
29,74,1799,-1,0.95,0.95,
29,75,2236,1,0.95,2,
29,76,5120,-1,1.1,0.95,
29,77,2093,1,1.25,1.55,
29,78,2179,1,0.8,1.25,
29,79,2487,1,0.95,0.95,
29,80,2714,1,0.8,1.25,
29,81,2357,1,0.8,0.8,
29,82,2021,1,0.95,0.65,
29,83,1550,-1,0.65,1.55,
29,84,1564,1,0.95,0.95,
29,85,1883,1,0.8,1.55,
29,86,2328,1,1.1,0.95,
29,87,1972,-1,1.25,0.95,
29,88,2753,1,0.8,0.8,
29,89,2157,-1,0.5,0.95,
29,90,2620,1,1.25,0.8,
29,91,2088,-1,1.25,0.95,
29,92,2136,1,0.95,1.1,
29,93,2236,1,2,0.8,
29,94,2502,1,0.95,1.25,
29,95,1562,-1,0.8,0.8,
29,96,2116,-1,1.25,0.8,
29,97,2649,-1,1.1,0.95,
29,98,3566,1,1.25,1.1,
29,99,2881,-1,2,1.25,
29,100,2103,1,0.8,0.8,
29,101,2377,-1,1.7,1.25,
29,102,1481,-1,1.55,1.55,
29,103,2388,-1,1.7,1.7,
29,104,1359,-1,2,0.95,
29,105,2880,1,1.4,2,
29,106,2310,1,1.55,0.8,
29,107,1607,-1,0.8,1.7,
29,108,1214,1,1.55,1.25,
29,109,1696,-1,1.1,0.5,
29,110,2033,1,0.8,1.7,
29,111,2023,1,0.8,1.55,
29,112,2288,1,2,1.25,
29,113,2691,1,0.8,0.8,
29,114,1592,-1,1.1,1.7,
29,115,2044,-1,0.95,1.7,
29,116,2946,-1,0.8,2.15,
29,117,2553,1,1.1,0.95,
29,118,1492,-1,0.95,0.8,
29,119,3785,-1,1.55,1.25,
30,0,1931,-1,1.7,2.15,
30,1,2404,-1,0.95,1.4,
30,2,1716,1,1.85,3,
30,3,2148,1,1.7,2,
30,4,1241,-1,1.7,1.1,
30,5,4204,-1,2.1,2,
30,6,1600,1,2,0.95,
30,7,2211,1,1.85,1.4,
30,8,1704,1,2.1,0.95,
30,9,1600,1,1.25,2.15,
30,10,2422,-1,1.55,2.45,
30,11,1896,-1,1.7,0.95,
30,12,2521,-1,0.95,1.1,
30,13,2004,-1,2.15,2,
30,14,1472,1,0.95,1.1,
30,15,5383,1,1.1,2,
30,16,1362,-1,0.95,2,
30,17,1891,1,0.8,1.4,
30,18,1274,-1,1.4,1.1,
30,19,1471,1,1.1,1.1,
30,20,6168,1,1.1,0.95,
30,21,1395,-1,2.45,1.1,
30,22,2056,1,0.95,0.95,
30,23,2278,-1,1.1,0.95,
30,24,2561,-1,1.55,2,
30,25,1522,1,1.25,0.95,
30,26,1732,-1,0.95,0.8,
30,27,3913,-1,0.8,2,
30,28,4265,-1,0.95,0.95,
30,29,1164,-1,1.4,1.4,
30,30,1845,-1,1.55,1.1,
30,31,2843,-1,1.4,0.8,
30,32,1607,1,1.85,1.1,
30,33,1739,-1,0.95,2.15,
30,34,1155,-1,1.4,1.55,
30,35,2704,-1,1.25,0.95,
30,36,1786,-1,1.1,3,
30,37,1139,-1,0.95,2.45,
30,38,1149,-1,0.95,2,
30,39,1553,1,0.8,0.95,
30,40,2153,1,1.25,2,
30,41,2402,-1,0.95,1.25,
30,42,1541,-1,1.1,1.1,
30,43,1511,1,2,2.1,
30,44,1645,-1,1.55,1.1,
30,45,1098,1,1.1,2.15,
30,46,1549,1,0.95,2,
30,47,2215,1,1.4,0.8,
30,48,1421,-1,1.1,1.55,
30,49,1391,1,0.8,1.1,
30,50,3184,1,2.45,1.4,
30,51,2700,-1,0.95,0.95,
30,52,1209,1,1.85,0.95,
30,53,2049,1,1.55,1.4,
30,54,1544,1,0.95,1.7,
30,55,1390,1,0.95,0.95,
30,56,3872,-1,0.8,0.95,
30,57,2127,1,1.4,0.95,
30,58,1818,-1,0.95,0.8,
30,59,1140,1,3,1.1,
30,60,1240,1,0.95,1.4,
30,61,1684,1,1.55,1.1,
30,62,1281,-1,1.4,1.85,
30,63,1266,1,1.1,1.4,
30,64,1447,1,2,0.95,
30,65,1402,1,2.15,0.95,
30,66,1867,1,2,0.8,
30,67,1617,-1,0.8,1.55,
30,68,1272,1,2.45,0.95,
30,69,973,-1,2.15,2,
30,70,1506,1,1.1,1.4,
30,71,1373,-1,3,1.85,
30,72,1381,1,2.45,1.55,
30,73,1701,-1,0.95,1.1,
30,74,1317,1,1.4,1.55,
30,75,1939,1,1.1,1.1,
30,76,1619,1,0.95,1.1,
30,77,1885,-1,0.95,2,
30,78,1305,-1,0.95,1.85,
30,79,1443,1,1.85,2,
30,80,4243,-1,0.95,1.1,
30,81,1377,1,2,2.15,
30,82,2300,-1,1.1,0.95,
30,83,1573,1,1.4,1.4,
30,84,1566,1,2,2.15,
30,85,1769,-1,2,0.95,
30,86,2027,1,1.85,0.95,
30,87,1474,1,2.15,1.7,
30,88,1615,1,1.1,1.55,
30,89,1352,1,2,0.95,
30,90,1492,-1,1.4,0.95,
30,91,2773,-1,1.1,2.45,
30,92,1745,-1,1.1,0.8,
30,93,1520,1,2,1.25,
30,94,1349,-1,1.1,1.85,
30,95,1616,-1,1.1,0.95,
30,96,1252,1,1.55,0.8,
30,97,1365,-1,0.95,1.85,
30,98,1201,1,2,1.7,
30,99,1369,1,1.1,0.95,
30,100,7982,1,2,1.1,
30,101,1608,1,0.8,1.4,
30,102,1442,-1,2.15,1.1,
30,103,1610,1,1.1,1.7,
30,104,2007,-1,1.4,2.45,
30,105,1204,1,1.1,1.1,
30,106,839,-1,2,1.85,
30,107,1047,1,2,1.55,
30,108,1226,1,1.1,0.95,
30,109,1339,1,1.4,1.1,
30,110,980,-1,2.15,1.25,
30,111,1351,1,2,0.95,
30,112,1058,-1,0.95,0.8,
30,113,1190,1,0.8,0.95,
30,114,1304,1,0.95,2,
30,115,1453,1,0.95,1.25,
30,116,1491,-1,1.1,1.55,
30,117,959,-1,0.95,2.1,
30,118,1262,1,0.95,1.1,
30,119,899,-1,1.55,1.4,
31,0,2806,1,2,0.8,
31,1,1887,-1,0.8,1.55,
31,2,1842,-1,0.8,1.55,
31,3,5697,1,1.25,1.55,
31,4,3179,1,0.8,0.8,
31,5,1968,-1,0.65,0.95,
31,6,3571,-1,2,1.1,
31,7,1916,-1,0.8,1.55,
31,8,6869,1,0.95,0.8,
31,9,1735,-1,1.1,0.95,
31,10,1689,1,0.95,0.8,
31,11,1926,-1,0.95,1.1,
31,12,2321,-1,1.4,2,
31,13,3173,1,1.1,0.95,
31,14,1410,1,1.1,0.95,
31,15,1913,-1,2,1.25,
31,16,5267,-1,3,2.45,
31,17,1478,-1,2.15,3,
31,18,1750,1,2.45,1.1,
31,19,2418,-1,0.95,0.95,
31,20,3594,-1,2,1.4,
31,21,2079,-1,0.95,1.1,
31,22,1617,1,0.95,0.8,
31,23,2727,-1,0.65,2,
31,24,1593,1,1.4,0.65,
31,25,3681,-1,2,2,
31,26,5021,-1,0.95,3,
31,27,592,1,1.55,0.8,
31,28,621,1,0.8,1.55,
31,29,4016,1,2,1.55,
31,30,1954,-1,1.55,2.6,
31,31,13825,1,2,0.95,
31,32,1801,-1,0.8,1.4,
31,33,1665,1,1.1,2.15,
31,34,4277,-1,0.95,2.6,
31,35,590,1,0.8,0.95,
31,36,2515,1,0.95,3,
31,37,3934,1,2,0.95,
31,38,2434,1,2,1.1,
31,39,2603,1,1.4,0.8,
31,40,3174,-1,0.8,0.95,
31,41,1656,1,0.65,0.8,
31,42,2021,-1,2,1.1,
31,43,8498,-1,3,2.45,
31,44,1523,1,1.1,0.95,
31,45,1801,-1,0.8,2,
31,46,3317,1,0.95,0.95,
31,47,2639,1,2.6,0.95,
31,48,3040,1,2.45,3,
31,49,1792,1,1.25,0.95,
31,50,2594,1,1.1,2,
31,51,1556,1,2,0.65,
31,52,7643,-1,0.8,0.8,
31,53,1838,-1,2,1.1,
31,54,1653,-1,0.65,0.95,
31,55,1700,-1,0.8,1.4,
31,56,1510,1,1.25,0.95,
31,57,2024,-1,3,0.95,
31,58,1585,-1,0.95,1.1,
31,59,1575,1,2.6,1.55,
31,60,1448,1,2.45,0.95,
31,61,1724,-1,1.1,2.45,
31,62,1912,-1,0.95,1.1,
31,63,3126,-1,0.95,1.25,
31,64,1542,1,1.4,2,
31,65,2882,-1,1.1,0.65,
31,66,1861,-1,1.55,2,
31,67,3432,1,2,0.65,
31,68,1993,-1,0.95,2,
31,69,1826,-1,0.8,0.95,
31,70,1326,1,1.4,1.4,
31,71,1681,-1,1.1,2,
31,72,2107,-1,1.55,2,
31,73,6633,1,0.8,1.55,
31,74,6600,-1,0.8,0.8,
31,75,2051,1,0.95,0.95,
31,76,1352,1,3,0.65,
31,77,1779,-1,1.4,0.95,
31,78,1981,-1,0.95,2,
31,79,2886,1,1.55,1.25,
31,80,2825,-1,0.95,1.25,
31,81,4301,1,1.1,2,
31,82,13504,1,0.95,2,
31,83,2745,1,1.55,0.8,
31,84,6495,1,0.8,0.95,
31,85,1617,-1,1.55,0.8,
31,86,2104,1,1.25,0.95,
31,87,1542,-1,0.65,1.4,
31,88,2535,-1,0.8,0.65,
31,89,3877,1,0.8,0.8,
31,90,1655,-1,0.8,2,
31,91,1528,1,3,2.15,
31,92,1120,-1,1.4,1.4,
31,93,8770,1,0.65,1.1,
31,94,1337,1,2,0.95,
31,95,1118,-1,0.65,3,
31,96,1652,-1,2.15,1.1,
31,97,1257,1,2,1.55,
31,98,1494,1,0.95,0.65,
31,99,1184,1,0.95,1.4,
31,100,1718,-1,0.65,2,
31,101,1681,-1,0.95,0.95,
31,102,1684,-1,1.25,1.55,
31,103,1641,1,1.1,2,
31,104,1177,1,1.1,0.95,
31,105,1116,1,3,0.95,
31,106,4596,1,2,2,
31,107,2824,1,1.55,0.8,
31,108,2865,1,2.45,3,
31,109,1555,1,0.95,1.1,
31,110,1543,1,1.55,0.8,
31,111,3718,1,0.95,0.8,
31,112,2962,-1,1.55,1.25,
31,113,2816,-1,0.95,1.25,
31,114,2271,1,2,1.4,
31,115,1378,1,1.4,0.8,
31,116,3296,1,1.25,2,
31,117,1562,1,0.95,0.65,
31,118,1519,-1,0.95,2.45,
31,119,2493,1,2,0.8,
32,0,6039,-1,0.05,2.9,
32,1,4235,-1,1.1,0.65,
32,2,1721,-1,2.15,2,
32,3,3880,1,0.65,0.5,
32,4,5161,-1,2.9,2.3,
32,5,2435,-1,2,2.6,
32,6,2053,-1,2,0.65,
32,7,2808,-1,2.3,1.55,
32,8,2466,1,1.85,2,
32,9,2533,1,0.95,2,
32,10,3087,1,2,1.55,
32,11,4044,1,2.3,2,
32,12,3717,-1,3,2.9,
32,13,4197,-1,2,3,
32,14,1951,-1,1.85,0.65,
32,15,2636,1,1.25,2,
32,16,5609,1,3,2.15,
32,17,3842,-1,2,0,
32,18,2590,1,2.6,0,
32,19,4552,-1,2.15,0.2,
32,20,5707,1,2.3,2,
32,21,2032,-1,2.9,0.95,
32,22,3916,1,0.65,2.15,
32,23,3903,1,0.5,2.45,
32,24,5606,-1,2,1.7,
32,25,7210,1,0.05,0.95,
32,26,2270,-1,0.2,0.5,
32,27,6764,-1,0.95,0.2,
32,28,2622,-1,1.55,2.9,
32,29,2722,1,0,2.15,
32,30,3626,1,0,0,
32,31,6235,-1,3,1.55,
32,32,2322,1,2.45,2.45,
32,33,3888,1,0.2,2.15,
32,34,2585,-1,2.15,2.3,
32,35,3448,1,2.15,2,
32,36,5957,1,2.15,2.3,
32,37,3157,1,2.45,1.7,
32,38,5984,-1,2.3,0.65,
32,39,3440,-1,2.9,2.45,
32,40,3665,1,0,0.05,
32,41,3219,-1,0.65,1.1,
32,42,3585,1,2,3,
32,43,4056,1,0,2,
32,44,2483,-1,2.3,2.15,
32,45,2924,-1,2.3,0.95,
32,46,3935,-1,0.5,2,
32,47,3444,-1,2,2.15,
32,48,9235,-1,2.3,2,
32,49,5697,1,0,2.45,
32,50,5398,1,2.9,0.65,
32,51,2416,-1,0.5,0.2,
32,52,2498,-1,0.65,0.35,
32,53,2454,-1,0,0,
32,54,6321,-1,0.65,1.85,
32,55,8417,1,2,1.85,
32,56,2554,-1,2,1.25,
32,57,5220,1,1.55,2.3,
32,58,7288,-1,2.3,2.15,
32,59,4805,1,2.45,0.5,
32,60,2752,-1,2,0.95,
32,61,4018,1,1.55,1.25,
32,62,1675,-1,2.3,0,
32,63,4835,-1,1.1,3,
32,64,1641,1,0.35,2.45,
32,65,7610,1,2.3,2.9,
32,66,3286,-1,1.55,0,
32,67,4550,1,2.15,0.2,
32,68,4459,-1,1.7,2.45,
32,69,3765,1,0,2,
32,70,6405,-1,0.65,2,
32,71,2385,1,0.95,0.2,
32,72,4429,-1,2.45,3,
32,73,6297,1,2.3,2.15,
32,74,2278,-1,2.15,0,
32,75,3901,-1,0.2,2.3,
32,76,2534,-1,3,2,
32,77,1524,1,0.05,3,
32,78,4478,1,2,2.9,
32,79,3472,-1,2.9,3,
32,80,9789,-1,2,0,
32,81,1429,-1,2.6,2,
32,82,4597,1,2.3,0.2,
32,83,4851,-1,3,2.45,
32,84,3562,1,2.15,0.65,
32,85,2518,1,2.15,2.3,
32,86,1884,-1,2.45,0.35,
32,87,1122,1,0.35,0.65,
32,88,2179,-1,2.9,1.55,
32,89,7205,1,2,2.3,
32,90,2713,-1,2.15,3,
32,91,2609,1,0.95,2.9,
32,92,2694,-1,2,2.3,
32,93,2761,1,1.55,2,
32,94,2285,1,2,0.5,
32,95,1613,-1,0.95,0.05,
32,96,2841,1,0.2,0.95,
32,97,2258,-1,0.65,2.3,
32,98,1243,1,0,2.6,
32,99,1767,-1,2.45,0,
32,100,2423,1,3,1.1,
32,101,1217,-1,1.7,2,
32,102,3420,1,2.9,2,
32,103,8198,-1,0.65,2.9,
32,104,5417,1,2.45,2.9,
32,105,1100,1,0,1.55,
32,106,1789,-1,3,0.05,
32,107,4438,1,2,2.3,
32,108,3252,1,2,2.15,
32,109,4139,-1,2.9,0.05,
32,110,2098,-1,0.2,0.95,
32,111,2920,-1,3,2,
32,112,3779,-1,1.25,1.55,
32,113,1952,1,0.2,2.15,
32,114,2133,-1,0.5,0.65,
32,115,1395,1,1.55,3,
32,116,1213,1,0,2.3,
32,117,3394,-1,0.05,0,
32,118,5280,1,2.45,2.45,
32,119,1905,-1,0.95,2.3,