,parcode,rt,choice,trial,item_left,item_right
0,1,3327,1,0,-1.237880962102053,1.1361373213813402
1,1,3424,1,1,1.8144282595194503,0.45784638324322857
2,1,3691,1,2,0.45784638324322685,-0.5595900239639386
3,1,8144,-1,3,0.11870091417417107,1.8144282595194512
4,1,6559,-1,4,1.1361373213813388,1.1361373213813402
5,1,5595,-1,5,-1.9161719002401647,-0.5595900239639386
6,1,2470,1,6,0.11870091417417107,-0.8987354930329942
7,1,6091,1,7,-1.237880962102053,-1.9161719002401616
8,1,4669,1,8,0.11870091417417107,0.45784638324322857
9,1,4001,1,9,1.1361373213813388,-0.8987354930329942
10,1,3301,-1,10,-0.8987354930329967,-0.8987354930329942
11,1,2867,-1,11,-0.22044455489488518,1.1361373213813402
12,1,3117,1,12,0.7969918523122831,-0.8987354930329942
13,1,10424,1,13,0.45784638324322685,1.1361373213813402
14,1,2754,-1,14,-0.559590023963941,0.118700914174173
15,1,5836,1,15,1.1361373213813388,0.45784638324322857
16,1,3931,1,16,0.7969918523122831,0.45784638324322857
17,1,3602,1,17,0.11870091417417107,-1.5770264311711057
18,1,5674,-1,18,0.45784638324322685,-0.22044455489488304
19,1,2567,1,19,0.45784638324322685,-0.8987354930329942
20,1,2097,-1,20,-0.8987354930329967,0.118700914174173
21,1,3641,-1,21,-1.237880962102053,-1.5770264311711057
22,1,4550,1,22,0.45784638324322685,0.118700914174173
23,1,2973,1,23,0.45784638324322685,-0.22044455489488304
24,1,2824,-1,24,-0.559590023963941,0.45784638324322857
25,1,3643,-1,25,1.1361373213813388,1.8144282595194512
26,1,2188,1,26,0.7969918523122831,-1.9161719002401616
27,1,3321,1,27,0.7969918523122831,-0.8987354930329942
28,1,6784,-1,28,0.7969918523122831,1.1361373213813402
29,1,2314,-1,29,-0.8987354930329967,1.8144282595194512
30,1,2952,-1,30,-0.8987354930329967,1.1361373213813402
31,1,8388,-1,31,-0.559590023963941,-0.22044455489488304
32,1,5341,1,32,-0.559590023963941,0.7969918523122846
33,1,2183,1,33,-0.8987354930329967,-1.2378809621020501
34,1,3207,-1,34,-1.237880962102053,0.7969918523122846
35,1,3224,1,35,-0.8987354930329967,0.118700914174173
36,1,3476,1,36,0.45784638324322685,0.7969918523122846
37,1,2295,-1,37,-1.9161719002401647,0.45784638324322857
38,1,3513,-1,38,0.11870091417417107,1.8144282595194512
39,1,4458,1,39,-0.8987354930329967,-1.2378809621020501
40,1,2348,1,40,0.11870091417417107,-0.8987354930329942
41,1,2809,-1,41,-0.22044455489488518,0.45784638324322857
42,1,1992,-1,42,-0.8987354930329967,0.45784638324322857
43,1,1534,1,43,0.7969918523122831,-1.2378809621020501
44,1,3023,-1,44,-1.237880962102053,1.8144282595194512
45,1,3452,-1,45,1.1361373213813388,1.1361373213813402
46,1,3961,1,46,1.1361373213813388,0.118700914174173
47,1,2636,1,47,1.1361373213813388,-0.8987354930329942
48,1,1898,1,48,1.1361373213813388,-0.8987354930329942
49,1,1725,1,49,1.8144282595194503,-0.8987354930329942
50,1,4336,1,50,1.8144282595194503,1.1361373213813402
51,1,2037,-1,51,-1.237880962102053,-0.8987354930329942
52,1,2479,-1,52,-2.594462838378277,0.7969918523122846
53,1,3389,1,53,1.8144282595194503,0.118700914174173
54,1,2339,-1,54,0.45784638324322685,1.1361373213813402
55,1,3609,-1,55,0.7969918523122831,0.7969918523122846
56,1,7371,1,56,1.8144282595194503,0.118700914174173
57,1,2520,-1,57,0.11870091417417107,1.1361373213813402
58,1,1761,1,58,1.1361373213813388,-0.22044455489488304
59,1,2593,1,59,0.7969918523122831,0.45784638324322857
60,1,5772,1,60,0.11870091417417107,-0.8987354930329942
61,1,1945,-1,61,-0.8987354930329967,0.7969918523122846
62,1,1621,1,62,-0.8987354930329967,-2.5944628383782735
63,1,2952,1,63,0.11870091417417107,-0.22044455489488304
64,1,2725,-1,64,-0.559590023963941,1.1361373213813402
65,1,2591,-1,65,-0.8987354930329967,0.118700914174173
66,1,3523,1,66,-0.22044455489488518,-0.8987354930329942
67,1,7082,-1,67,-0.559590023963941,-0.8987354930329942
68,1,4066,1,68,0.11870091417417107,-0.5595900239639386
69,1,2602,-1,69,-0.559590023963941,1.1361373213813402
70,1,3239,1,70,-0.22044455489488518,-0.5595900239639386
71,1,1943,-1,71,0.11870091417417107,0.118700914174173
72,1,3627,-1,72,0.7969918523122831,1.1361373213813402
73,1,6245,-1,73,0.45784638324322685,0.118700914174173
74,1,4574,1,74,0.7969918523122831,0.118700914174173
75,1,4327,1,75,0.45784638324322685,-1.9161719002401616
76,1,6247,-1,76,-0.8987354930329967,1.1361373213813402
77,1,2353,-1,77,-0.8987354930329967,-0.5595900239639386
78,1,4758,-1,78,-1.237880962102053,0.118700914174173
79,1,2715,-1,79,-0.8987354930329967,0.7969918523122846
80,1,1573,-1,80,-2.594462838378277,-0.8987354930329942
81,1,1712,1,81,0.7969918523122831,0.7969918523122846
82,1,2040,-1,82,0.11870091417417107,0.45784638324322857
83,1,2372,1,83,1.1361373213813388,0.7969918523122846
84,1,4185,-1,84,1.1361373213813388,0.45784638324322857
85,1,3429,1,85,-0.8987354930329967,-0.5595900239639386
86,1,2044,-1,86,-0.22044455489488518,0.118700914174173
87,1,2542,1,87,1.1361373213813388,-1.2378809621020501
88,1,1576,1,88,1.1361373213813388,-0.5595900239639386
89,1,2497,-1,89,-0.8987354930329967,-0.8987354930329942
90,1,2511,1,90,0.7969918523122831,-0.8987354930329942
91,1,1564,1,91,0.11870091417417107,0.118700914174173
92,1,1616,1,92,0.11870091417417107,-1.2378809621020501
93,1,2987,1,93,1.1361373213813388,0.45784638324322857
94,1,3625,-1,94,0.45784638324322685,1.1361373213813402
95,1,2226,-1,95,-0.8987354930329967,1.1361373213813402
96,1,2179,-1,96,-1.5770264311711086,0.118700914174173
97,1,1847,-1,97,-1.9161719002401647,0.7969918523122846
98,1,1569,1,98,-0.559590023963941,-1.9161719002401616
99,1,2371,-1,99,-0.8987354930329967,1.1361373213813402
100,1,2482,-1,100,-0.8987354930329967,0.7969918523122846
101,1,2747,-1,101,-1.237880962102053,-0.8987354930329942
102,1,2918,1,102,1.1361373213813388,0.118700914174173
103,1,3706,1,103,1.1361373213813388,0.7969918523122846
104,1,3625,1,104,1.1361373213813388,-0.8987354930329942
105,1,3938,-1,105,-1.5770264311711086,-1.2378809621020501
106,1,2329,-1,106,-1.9161719002401647,-1.2378809621020501
107,1,2028,-1,107,-0.559590023963941,0.45784638324322857
108,1,1665,1,108,0.7969918523122831,-2.5944628383782735
109,1,1580,1,109,1.8144282595194503,-1.2378809621020501
110,1,4189,-1,110,0.45784638324322685,1.8144282595194512
111,1,2626,-1,111,0.45784638324322685,0.7969918523122846
112,1,3783,1,112,0.45784638324322685,-0.5595900239639386
113,1,2920,-1,113,0.11870091417417107,1.1361373213813402
114,1,4843,-1,114,-0.559590023963941,-0.8987354930329942
115,1,5275,-1,115,-0.22044455489488518,0.45784638324322857
116,1,5630,-1,116,-0.8987354930329967,-0.22044455489488304
117,1,1871,1,117,1.1361373213813388,-0.5595900239639386
118,1,4173,1,118,0.7969918523122831,-0.5595900239639386
119,1,2828,-1,119,0.11870091417417107,0.7969918523122846
120,2,4960,-1,0,-0.6987464405187457,0.5978964387943906
121,2,6438,-1,1,0.5978964387943905,1.2462178784509588
122,2,5125,-1,2,-0.6987464405187457,1.2462178784509588
123,2,4268,-1,3,-0.6987464405187457,0.5978964387943906
124,2,4726,1,4,0.5978964387943905,-0.05042500086217747
125,2,5392,1,5,0.5978964387943905,-0.05042500086217747
126,2,3471,1,6,-0.6987464405187457,-1.5631750267275026
127,2,4299,1,7,0.5978964387943905,-0.05042500086217747
128,2,4299,1,8,0.5978964387943905,0.5978964387943906
129,2,4088,-1,9,0.5978964387943905,1.2462178784509588
130,2,3147,-1,10,-1.563175026727503,-0.6987464405187453
131,2,3923,-1,11,-1.563175026727503,-0.6987464405187453
132,2,3889,-1,12,-0.05042500086217772,1.2462178784509588
133,2,4426,-1,13,-1.563175026727503,-0.6987464405187453
134,2,3035,1,14,1.2462178784509585,-1.5631750267275026
135,2,4915,1,15,-0.6987464405187457,-0.6987464405187453
136,2,5395,1,16,0.5978964387943905,-0.05042500086217747
137,2,5623,1,17,-0.05042500086217772,1.2462178784509588
138,2,6208,1,18,-0.05042500086217772,-0.6987464405187453
139,2,2323,1,19,-0.6987464405187457,-1.5631750267275026
140,2,3491,-1,20,-0.05042500086217772,-0.6987464405187453
141,2,5468,1,21,1.2462178784509585,-0.6987464405187453
142,2,6446,-1,22,0.5978964387943905,1.2462178784509588
143,2,4541,1,23,-0.05042500086217772,-0.05042500086217747
144,2,3991,-1,24,-1.563175026727503,1.8945393181075267
145,2,4235,-1,25,0.5978964387943905,1.2462178784509588
146,2,5489,1,26,1.2462178784509585,1.2462178784509588
147,2,6380,-1,27,0.5978964387943905,1.8945393181075267
148,2,3385,1,28,0.5978964387943905,-1.3470678801753133
149,2,4479,1,29,0.5978964387943905,0.5978964387943906
150,2,3546,-1,30,-0.6987464405187457,1.2462178784509588
151,2,3266,1,31,1.8945393181075267,-0.6987464405187453
152,2,2267,1,32,-0.6987464405187457,-1.3470678801753133
153,2,3808,-1,33,-0.6987464405187457,-0.05042500086217747
154,2,4033,-1,34,1.2462178784509585,-0.05042500086217747
155,2,3093,-1,35,-0.6987464405187457,0.5978964387943906
156,2,3486,1,36,-1.3470678801753138,-0.05042500086217747
157,2,5401,-1,37,-1.3470678801753138,0.5978964387943906
158,2,2833,-1,38,0.5978964387943905,-1.3470678801753133
159,2,1746,-1,39,-1.563175026727503,0.5978964387943906
160,2,2741,1,40,0.5978964387943905,-0.6987464405187453
161,2,2186,-1,41,-1.563175026727503,1.2462178784509588
162,2,2803,-1,42,-1.3470678801753138,-0.6987464405187453
163,2,1702,-1,43,-1.563175026727503,-0.05042500086217747
164,2,2152,-1,44,-0.6987464405187457,-0.6987464405187453
165,2,1414,1,45,-0.6987464405187457,1.2462178784509588
166,2,1979,1,46,0.5978964387943905,-0.05042500086217747
167,2,1929,1,47,0.5978964387943905,-0.05042500086217747
168,2,1618,-1,48,-1.563175026727503,1.2462178784509588
169,2,1534,-1,49,-0.6987464405187457,-1.5631750267275026
170,2,1384,-1,50,-0.05042500086217772,0.5978964387943906
171,2,1343,1,51,-0.6987464405187457,-1.5631750267275026
172,2,1683,1,52,-0.6987464405187457,-1.5631750267275026
173,2,2062,1,53,1.2462178784509585,-1.3470678801753133
174,2,1539,1,54,1.2462178784509585,0.5978964387943906
175,2,1601,1,55,1.2462178784509585,1.2462178784509588
176,2,1858,-1,56,-1.3470678801753138,-0.6987464405187453
177,2,1467,1,57,0.5978964387943905,0.5978964387943906
178,2,1867,-1,58,1.2462178784509585,1.2462178784509588
179,2,1450,-1,59,-0.6987464405187457,1.8945393181075267
180,2,2378,-1,60,1.2462178784509585,0.5978964387943906
181,2,2138,1,61,-0.05042500086217772,0.5978964387943906
182,2,1414,-1,62,-1.563175026727503,-0.6987464405187453
183,2,1971,-1,63,1.2462178784509585,-0.05042500086217747
184,2,1983,1,64,1.2462178784509585,-0.6987464405187453
185,2,2258,1,65,1.2462178784509585,-0.6987464405187453
186,2,1400,1,66,0.5978964387943905,-0.6987464405187453
187,2,1192,1,67,0.5978964387943905,-1.5631750267275026
188,2,1291,1,68,1.2462178784509585,-0.6987464405187453
189,2,1035,1,69,-0.05042500086217772,-0.6987464405187453
190,2,2068,1,70,-1.3470678801753138,0.5978964387943906
191,2,1164,1,71,0.5978964387943905,-1.5631750267275026
192,2,1482,-1,72,1.2462178784509585,0.5978964387943906
193,2,1122,1,73,-0.05042500086217772,-1.5631750267275026
194,2,1763,1,74,-1.3470678801753138,-0.6987464405187453
195,2,2008,1,75,1.2462178784509585,-0.05042500086217747
196,2,1831,1,76,-1.3470678801753138,0.5978964387943906
197,2,2109,-1,77,-0.05042500086217772,0.5978964387943906
198,2,1709,1,78,1.2462178784509585,0.5978964387943906
199,2,1236,-1,79,0.5978964387943905,1.8945393181075267
200,2,1524,1,80,-0.6987464405187457,-1.5631750267275026
201,2,1581,1,81,1.2462178784509585,0.5978964387943906
202,2,1901,1,82,-0.6987464405187457,-1.3470678801753133
203,2,1353,-1,83,-0.05042500086217772,0.5978964387943906
204,2,1977,1,84,-0.05042500086217772,-1.5631750267275026
205,2,2311,-1,85,1.2462178784509585,1.2462178784509588
206,2,4034,1,86,-0.05042500086217772,-0.6987464405187453
207,2,4496,-1,87,-1.3470678801753138,1.2462178784509588
208,2,3360,1,88,1.2462178784509585,-0.6987464405187453
209,2,2518,1,89,-0.6987464405187457,-1.3470678801753133
210,2,2633,-1,90,0.5978964387943905,-1.5631750267275026
211,2,1823,-1,91,-1.563175026727503,-0.6987464405187453
212,2,1877,-1,92,-0.05042500086217772,0.5978964387943906
213,2,1594,-1,93,-1.563175026727503,-0.6987464405187453
214,2,1612,-1,94,-0.05042500086217772,0.5978964387943906
215,2,1802,-1,95,-1.563175026727503,0.5978964387943906
216,2,1411,-1,96,-0.6987464405187457,1.2462178784509588
217,2,1388,-1,97,-1.563175026727503,0.5978964387943906
218,2,1358,1,98,-0.6987464405187457,-0.05042500086217747
219,2,1781,-1,99,0.5978964387943905,-1.3470678801753133
220,2,1297,-1,100,1.8945393181075267,0.5978964387943906
221,2,1113,-1,101,-0.6987464405187457,1.2462178784509588
222,2,2545,-1,102,0.5978964387943905,-0.6987464405187453
223,2,1569,-1,103,-0.05042500086217772,-1.3470678801753133
224,2,2018,-1,104,0.5978964387943905,1.2462178784509588
225,2,1145,1,105,0.5978964387943905,-0.6987464405187453
226,2,1527,-1,106,-0.6987464405187457,-0.05042500086217747
227,2,1212,1,107,1.2462178784509585,0.5978964387943906
228,2,1160,1,108,0.5978964387943905,1.2462178784509588
229,2,1098,1,109,1.8945393181075267,0.5978964387943906
230,2,1057,-1,110,-0.6987464405187457,1.2462178784509588
231,2,838,1,111,1.8945393181075267,-1.5631750267275026
232,2,1373,-1,112,0.5978964387943905,0.5978964387943906
233,2,1476,-1,113,-1.563175026727503,-0.05042500086217747
234,2,1187,-1,114,-0.6987464405187457,0.5978964387943906
235,2,1047,1,115,-0.05042500086217772,1.2462178784509588
236,2,1063,1,116,1.2462178784509585,-0.6987464405187453
237,2,861,-1,117,-0.05042500086217772,-0.05042500086217747
238,2,1220,-1,118,-0.6987464405187457,-0.05042500086217747
239,2,757,1,119,1.2462178784509585,-1.5631750267275026
240,3,4203,-1,0,-0.02968115607320205,1.157565086854905
241,3,4734,1,1,1.6027824279529455,1.0091593064888917
242,3,4187,-1,2,-0.6233042775372558,1.4543766475869322
243,3,2945,-1,3,-1.1179902120906338,-1.1179902120906342
244,3,3554,1,4,1.157565086854905,-0.17808693643921586
245,3,5791,1,5,-0.02968115607320205,-0.9201158382692831
246,3,630,-1,6,-0.02968115607320205,0.11872462429281108
247,3,3815,-1,7,-0.1780869364392156,0.8112849326675404
248,3,5328,1,8,-0.4748984971712424,-1.1179902120906342
249,3,6404,-1,9,1.6027824279529455,1.0091593064888917
250,3,2052,-1,10,-1.1179902120906338,1.6027824279529455
251,3,5112,1,11,0.5639419653908515,0.11872462429281108
252,3,2769,-1,12,0.8607535261228784,1.8501253952296346
253,3,3526,-1,13,1.4543766475869322,0.8607535261228784
254,3,6337,1,14,0.11872462429281128,-0.7717100579032696
255,3,2655,-1,15,-0.6233042775372558,1.751188208318959
256,3,2385,1,16,-0.1780869364392156,-0.6233042775372561
257,3,1899,1,17,-0.7717100579032692,-0.6233042775372561
258,3,2165,1,18,-0.02968115607320205,-1.1179902120906342
259,3,2011,1,19,-0.1780869364392156,-1.1179902120906342
260,3,4543,1,20,-1.1179902120906338,-1.1179902120906342
261,3,3104,-1,21,-0.7717100579032692,1.8501253952296346
262,3,3357,1,22,-0.7717100579032692,-1.0685216186352964
263,3,2669,-1,23,-1.1179902120906338,0.2671304046588244
264,3,3132,1,24,-0.4748984971712424,-1.1179902120906342
265,3,8554,1,25,-0.1780869364392156,-0.47489849717124266
266,3,4247,-1,26,1.8501253952296344,1.157565086854905
267,3,4917,-1,27,-0.9201158382692827,0.11872462429281108
268,3,5040,1,28,-0.7717100579032692,-0.029681156073202278
269,3,2385,1,29,1.157565086854905,-1.1179902120906342
270,3,2413,-1,30,-0.9201158382692827,0.8112849326675404
271,3,2459,-1,31,-0.1780869364392156,1.157565086854905
272,3,4277,-1,32,0.11872462429281128,-0.7717100579032696
273,3,3671,1,33,-1.068521618635296,-0.9201158382692831
274,3,1866,1,34,1.8501253952296344,-1.1179902120906342
275,3,2340,-1,35,-0.6233042775372558,-0.47489849717124266
276,3,4751,-1,36,-1.1179902120906338,1.6027824279529455
277,3,5185,1,37,-1.1179902120906338,-1.1179902120906342
278,3,2073,1,38,0.8607535261228784,-1.0685216186352964
279,3,2031,-1,39,-1.1179902120906338,0.8607535261228784
280,3,1964,-1,40,0.11872462429281128,1.0091593064888917
281,3,2323,1,41,0.8607535261228784,-1.1179902120906342
282,3,2812,1,42,0.11872462429281128,-0.9201158382692831
283,3,2225,-1,43,-1.1179902120906338,-1.1179902120906342
284,3,1786,1,44,0.8112849326675405,-0.9201158382692831
285,3,1676,-1,45,-0.9201158382692827,-1.0685216186352964
286,3,2207,-1,46,-1.1179902120906338,-0.7717100579032696
287,3,1493,-1,47,-1.1179902120906338,-0.6233042775372561
288,3,5068,1,48,1.0091593064888917,-0.6233042775372561
289,3,3112,1,49,1.0091593064888917,1.6027824279529455
290,3,4139,1,50,-0.6233042775372558,0.5639419653908514
291,3,2312,1,51,1.7511882083189587,-0.6233042775372561
292,3,2852,-1,52,-1.1179902120906338,-0.7717100579032696
293,3,3026,1,53,0.8607535261228784,1.4543766475869322
294,3,3254,-1,54,-0.4748984971712424,1.157565086854905
295,3,2383,-1,55,-1.1179902120906338,1.0091593064888917
296,3,2269,1,56,1.6027824279529455,-1.1179902120906342
297,3,1511,-1,57,-1.068521618635296,1.6027824279529455
298,3,14774,-1,58,0.11872462429281128,0.5639419653908514
299,3,2133,1,59,1.0091593064888917,-1.1179902120906342
300,3,3904,1,60,1.7511882083189587,-0.029681156073202278
301,3,3875,-1,61,-0.9201158382692827,-0.9201158382692831
302,3,2880,-1,62,-1.1179902120906338,-0.47489849717124266
303,3,1806,-1,63,-1.1179902120906338,-0.47489849717124266
304,3,2263,-1,64,-0.7717100579032692,1.7017196148636213
305,3,7731,1,65,1.4543766475869322,-0.6233042775372561
306,3,3051,-1,66,-0.7717100579032692,0.11872462429281108
307,3,2542,-1,67,-0.6233042775372558,1.4543766475869322
308,3,3003,1,68,1.157565086854905,-0.17808693643921586
309,3,2876,1,69,1.4543766475869322,1.6027824279529455
310,3,1992,1,70,-0.02968115607320205,-0.47489849717124266
311,3,2447,-1,71,-0.9201158382692827,-0.029681156073202278
312,3,4018,-1,72,-1.1179902120906338,1.157565086854905
313,3,3263,1,73,-0.7717100579032692,0.11872462429281108
314,3,2281,-1,74,-1.1179902120906338,-1.1179902120906342
315,3,6951,-1,75,-0.7717100579032692,-0.6233042775372561
316,3,3526,1,76,0.8112849326675405,-0.17808693643921586
317,3,2094,1,77,1.8501253952296344,-0.7717100579032696
318,3,3462,-1,78,1.157565086854905,1.7017196148636213
319,3,1916,1,79,-0.02968115607320205,0.2671304046588244
320,3,4374,-1,80,0.11872462429281128,-0.029681156073202278
321,3,1255,1,81,-1.1179902120906338,1.8501253952296346
322,3,2214,1,82,-0.6233042775372558,-1.1179902120906342
323,3,1485,1,83,1.6027824279529455,-1.0685216186352964
324,3,1662,1,84,-0.7717100579032692,-1.1179902120906342
325,3,1511,-1,85,-0.6233042775372558,1.0091593064888917
326,3,2811,-1,86,1.0091593064888917,1.6027824279529455
327,3,2105,1,87,1.6027824279529455,-1.1179902120906342
328,3,1197,-1,88,-1.1179902120906338,1.0091593064888917
329,3,1095,-1,89,-1.1179902120906338,-0.029681156073202278
330,3,2910,-1,90,0.5639419653908515,-0.6233042775372561
331,3,430,-1,91,-1.1179902120906338,-0.17808693643921586
332,3,2373,1,92,1.157565086854905,-1.1179902120906342
333,3,1275,-1,93,-0.02968115607320205,1.751188208318959
334,3,2077,-1,94,-0.4748984971712424,-0.17808693643921586
335,3,4286,1,95,1.157565086854905,-0.029681156073202278
336,3,3626,-1,96,1.157565086854905,1.8501253952296346
337,3,2098,-1,97,1.6027824279529455,1.4543766475869322
338,3,2018,-1,98,-0.6233042775372558,-0.7717100579032696
339,3,2155,-1,99,-0.02968115607320205,-0.7717100579032696
340,3,1312,-1,100,-1.1179902120906338,1.157565086854905
341,3,2025,-1,101,-1.1179902120906338,-1.1179902120906342
342,3,2711,-1,102,-0.7717100579032692,-1.1179902120906342
343,3,1879,1,103,-1.068521618635296,-0.7717100579032696
344,3,2481,1,104,1.157565086854905,-0.47489849717124266
345,3,1066,-1,105,0.2671304046588246,-0.029681156073202278
346,3,1863,1,106,1.8501253952296344,0.8607535261228784
347,3,6252,-1,107,-0.6233042775372558,-0.7717100579032696
348,3,1516,1,108,-0.4748984971712424,-0.6233042775372561
349,3,1693,-1,109,-1.068521618635296,0.8607535261228784
350,3,1415,1,110,1.4543766475869322,-0.6233042775372561
351,3,1477,1,111,1.0091593064888917,-1.1179902120906342
352,3,1115,-1,112,-0.4748984971712424,-0.029681156073202278
353,3,2117,-1,113,-0.1780869364392156,1.157565086854905
354,3,3668,1,114,0.2671304046588246,-1.1179902120906342
355,3,1212,1,115,1.0091593064888917,0.11872462429281108
356,3,1658,1,116,1.701719614863621,-0.7717100579032696
357,3,1081,-1,117,-0.6233042775372558,-0.17808693643921586
358,3,1605,1,118,-0.9201158382692827,-0.9201158382692831
359,3,2735,1,119,1.701719614863621,1.157565086854905
360,4,4777,-1,0,-1.2619735879065417,0.26363605176838606
361,4,7090,-1,1,-1.1816783437131244,0.26363605176838606
362,4,4338,1,2,1.2271789820893952,-1.1816783437131249
363,4,11097,-1,3,0.5045217843486395,0.26363605176838606
364,4,5289,-1,4,0.2636360517683872,0.504521784348638
365,4,3754,1,5,0.5045217843486395,-0.45902114597236937
366,4,3146,-1,6,-0.6999068785526206,0.504521784348638
367,4,2635,1,7,1.468064714669647,0.9862932495091414
368,4,3422,-1,8,-1.2619735879065417,-0.45902114597236937
369,4,9677,1,9,2.672493377570907,0.504521784348638
370,4,2342,-1,10,-1.2619735879065417,-1.1816783437131249
371,4,2643,1,11,0.7454075169288913,-0.45902114597236937
372,4,2593,-1,12,0.2636360517683872,1.2271789820893935
373,4,2975,-1,13,-1.2619735879065417,-1.1816783437131249
374,4,3094,-1,14,0.2636360517683872,0.504521784348638
375,4,2419,1,15,-0.21813541339211656,-1.2619735879065421
376,4,9847,1,16,0.9862932495091431,0.26363605176838606
377,4,2667,1,17,0.2636360517683872,-1.1816783437131249
378,4,2451,1,18,-0.21813541339211656,-1.2619735879065421
379,4,1832,-1,19,-1.2619735879065417,-1.1816783437131249
380,4,4519,-1,20,-1.1816783437131244,0.26363605176838606
381,4,2357,-1,21,-1.1816783437131244,0.504521784348638
382,4,2320,-1,22,-0.6999068785526206,0.02275031918813435
383,4,3029,-1,23,-0.6999068785526206,1.2271789820893935
384,4,3476,-1,24,-0.21813541339211656,1.4680647146696453
385,4,2531,1,25,0.2636360517683872,-1.2619735879065421
386,4,4449,-1,26,0.022750319188135432,0.26363605176838606
387,4,2778,1,27,0.9862932495091431,-1.2619735879065421
388,4,3198,1,28,0.7454075169288913,-1.2619735879065421
389,4,2604,1,29,0.2636360517683872,-1.2619735879065421
390,4,1736,-1,30,-1.2619735879065417,1.2271789820893935
391,4,1528,-1,31,-1.2619735879065417,0.504521784348638
392,4,7987,-1,32,-1.2619735879065417,-1.2619735879065421
393,4,1808,-1,33,-1.1816783437131244,-0.2181354133921175
394,4,7586,1,34,0.2636360517683872,0.26363605176838606
395,4,2152,1,35,0.2636360517683872,-1.2619735879065421
396,4,5162,1,36,0.2636360517683872,0.7454075169288897
397,4,4705,1,37,0.2636360517683872,-1.1816783437131249
398,4,8093,-1,38,0.2636360517683872,2.4316076449906525
399,4,8516,-1,39,-0.6999068785526206,0.02275031918813435
400,4,8523,1,40,1.2271789820893952,0.504521784348638
401,4,2491,1,41,0.2636360517683872,-1.1816783437131249
402,4,2304,-1,42,-1.2619735879065417,-0.2181354133921175
403,4,2587,1,43,0.9862932495091431,-1.1816783437131249
404,4,2710,1,44,2.4316076449906543,-0.2181354133921175
405,4,4325,1,45,-0.21813541339211656,-1.1816783437131249
406,4,2295,1,46,-0.21813541339211656,-1.1816783437131249
407,4,2445,-1,47,0.022750319188135432,-0.2181354133921175
408,4,3839,1,48,1.2271789820893952,0.26363605176838606
409,4,2748,1,49,1.2271789820893952,-0.6999068785526212
410,4,2838,1,50,-0.21813541339211656,-0.45902114597236937
411,4,5352,1,51,1.2271789820893952,2.672493377570905
412,4,3472,-1,52,-0.21813541339211656,0.9862932495091414
413,4,1811,-1,53,0.022750319188135432,0.02275031918813435
414,4,3039,1,54,-0.45902114597236854,-1.2619735879065421
415,4,2841,1,55,-0.6999068785526206,-1.1816783437131249
416,4,11103,1,56,0.022750319188135432,-0.6999068785526212
417,4,1573,-1,57,-0.21813541339211656,2.672493377570905
418,4,1916,1,58,1.2271789820893952,-1.2619735879065421
419,4,3020,1,59,-1.1816783437131244,-1.2619735879065421
420,4,3972,1,60,2.4316076449906543,0.26363605176838606
421,4,3019,-1,61,0.022750319188135432,0.26363605176838606
422,4,6740,1,62,-0.45902114597236854,0.504521784348638
423,4,2329,1,63,0.2636360517683872,0.02275031918813435
424,4,4697,-1,64,0.5045217843486395,2.672493377570905
425,4,6004,-1,65,-0.6999068785526206,0.02275031918813435
426,4,2018,1,66,0.5045217843486395,-1.2619735879065421
427,4,2470,1,67,-0.9407926111328724,1.2271789820893935
428,4,2635,1,68,0.7454075169288913,0.9862932495091414
429,4,1999,1,69,0.5045217843486395,-1.1816783437131249
430,4,3486,-1,70,-0.21813541339211656,0.504521784348638
431,4,1772,1,71,0.5045217843486395,0.26363605176838606
432,4,3926,1,72,0.2636360517683872,-1.1816783437131249
433,4,2001,-1,73,-1.2619735879065417,0.26363605176838606
434,4,2195,-1,74,0.9862932495091431,1.4680647146696453
435,4,2002,-1,75,-1.2619735879065417,0.9862932495091414
436,4,1932,1,76,-1.1816783437131244,-1.2619735879065421
437,4,2868,1,77,-0.21813541339211656,2.672493377570905
438,4,2314,-1,78,-0.9407926111328724,-0.2181354133921175
439,4,2149,1,79,0.2636360517683872,1.2271789820893935
440,4,4482,1,80,-1.1816783437131244,-0.2181354133921175
441,4,2049,1,81,-0.21813541339211656,0.02275031918813435
442,4,2621,-1,82,0.5045217843486395,-0.2181354133921175
443,4,3313,-1,83,0.5045217843486395,0.26363605176838606
444,4,1616,-1,84,1.2271789820893952,0.26363605176838606
445,4,1869,1,85,2.672493377570907,-0.2181354133921175
446,4,4355,1,86,0.022750319188135432,-0.6999068785526212
447,4,1976,-1,87,-1.1816783437131244,0.26363605176838606
448,4,1653,-1,88,-1.1816783437131244,0.26363605176838606
449,4,2198,-1,89,-0.45902114597236854,0.7454075169288897
450,4,1692,1,90,0.022750319188135432,-0.6999068785526212
451,4,1836,-1,91,-1.2619735879065417,0.26363605176838606
452,4,1472,1,92,0.022750319188135432,0.02275031918813435
453,4,4448,1,93,2.672493377570907,-0.2181354133921175
454,4,1249,-1,94,-1.1816783437131244,1.2271789820893935
455,4,5278,-1,95,-0.45902114597236854,-0.2181354133921175
456,4,2021,-1,96,-1.2619735879065417,0.26363605176838606
457,4,7385,1,97,0.2636360517683872,0.02275031918813435
458,4,2576,-1,98,0.7454075169288913,0.26363605176838606
459,4,1866,1,99,-0.21813541339211656,-1.1816783437131249
460,4,4400,1,100,0.2636360517683872,0.504521784348638
461,4,1694,1,101,-1.1816783437131244,-1.2619735879065421
462,4,2222,1,102,2.672493377570907,1.2271789820893935
463,4,1475,-1,103,-1.1816783437131244,0.9862932495091414
464,4,4503,-1,104,0.5045217843486395,1.2271789820893935
465,4,1636,1,105,-0.21813541339211656,-0.9407926111328729
466,4,1509,-1,106,-1.2619735879065417,-0.2181354133921175
467,4,1361,-1,107,1.2271789820893952,-0.9407926111328729
468,4,1715,-1,108,-1.1816783437131244,-0.6999068785526212
469,4,2088,1,109,0.9862932495091431,-0.2181354133921175
470,4,1992,1,110,0.5045217843486395,-0.6999068785526212
471,4,2412,1,111,1.468064714669647,-0.2181354133921175
472,4,2200,1,112,0.2636360517683872,-1.2619735879065421
473,4,3664,-1,113,-0.21813541339211656,2.4316076449906525
474,4,9602,1,114,0.9862932495091431,0.7454075169288897
475,4,2676,-1,115,0.2636360517683872,0.9862932495091414
476,4,1788,1,116,-1.2619735879065417,-1.2619735879065421
477,4,1656,-1,117,-1.2619735879065417,0.7454075169288897
478,4,1366,-1,118,-1.1816783437131244,-0.2181354133921175
479,4,3515,-1,119,0.2636360517683872,0.26363605176838606
480,5,5222,1,0,-0.7279027353854152,-0.7279027353854154
481,5,3005,1,1,1.0519221348359755,-0.7279027353854154
482,5,4264,-1,2,-0.7279027353854152,-0.7279027353854154
483,5,3576,-1,3,0.6411933186310392,1.873379767245848
484,5,4101,1,4,1.462650951040912,1.0519221348359755
485,5,3769,-1,5,-0.7279027353854152,1.462650951040912
486,5,5630,-1,6,-0.7279027353854152,-0.7279027353854154
487,5,7975,1,7,0.6411933186310392,-0.7279027353854154
488,5,3312,-1,8,-0.7279027353854152,1.0519221348359755
489,5,6307,-1,9,-0.5909931299837697,-0.18026431377883353
490,5,2421,-1,10,-0.7279027353854152,1.462650951040912
491,5,3952,1,11,0.91501252943433,0.23046450242610272
492,5,3593,-1,12,-0.7279027353854152,-0.59099312998377
493,5,2755,1,13,2.284108583450785,-0.7279027353854154
494,5,2761,1,14,-0.18026431377883337,-0.7279027353854154
495,5,2862,-1,15,0.23046450242610284,1.462650951040912
496,5,3387,1,16,-0.5909931299837697,-0.7279027353854154
497,5,7527,-1,17,0.6411933186310392,1.0519221348359755
498,5,2628,-1,18,-0.7279027353854152,-0.7279027353854154
499,5,2234,-1,19,-0.7279027353854152,-0.59099312998377
500,5,7720,-1,20,0.6411933186310392,2.284108583450785
501,5,2831,-1,21,-0.7279027353854152,1.462650951040912
502,5,9213,1,22,-0.7279027353854152,-0.7279027353854154
503,5,2965,-1,23,-0.7279027353854152,1.873379767245848
504,5,2774,1,24,-0.5909931299837697,-0.7279027353854154
505,5,5143,-1,25,-0.7279027353854152,-0.7279027353854154
506,5,2852,-1,26,-0.7279027353854152,2.284108583450785
507,5,4989,-1,27,-0.7279027353854152,0.6411933186310391
508,5,3957,1,28,0.6411933186310392,-0.7279027353854154
509,5,2622,-1,29,-0.7279027353854152,1.873379767245848
510,5,3354,1,30,2.284108583450785,-0.59099312998377
511,5,1733,1,31,0.91501252943433,-0.7279027353854154
512,5,3966,-1,32,-0.7279027353854152,-0.7279027353854154
513,5,5645,-1,33,-0.5909931299837697,-0.7279027353854154
514,5,7195,-1,34,-0.7279027353854152,-0.7279027353854154
515,5,1676,1,35,2.284108583450785,-0.7279027353854154
516,5,1211,1,36,1.462650951040912,0.6411933186310391
517,5,1440,1,37,-0.7279027353854152,-0.7279027353854154
518,5,3679,-1,38,-0.5909931299837697,-0.18026431377883353
519,5,2146,-1,39,-0.7279027353854152,-0.7279027353854154
520,5,2987,1,40,-0.7279027353854152,-0.7279027353854154
521,5,1400,1,41,-0.7279027353854152,-0.7279027353854154
522,5,1921,1,42,-0.7279027353854152,-0.7279027353854154
523,5,5268,-1,43,1.462650951040912,1.462650951040912
524,5,5303,-1,44,-0.7279027353854152,2.284108583450785
525,5,1447,1,45,1.462650951040912,-0.7279027353854154
526,5,1275,-1,46,-0.7279027353854152,0.6411933186310391
527,5,2740,-1,47,-0.7279027353854152,-0.18026431377883353
528,5,1491,1,48,-0.7279027353854152,-0.7279027353854154
529,5,1521,-1,49,0.6411933186310392,1.462650951040912
530,5,1373,-1,50,-0.7279027353854152,-0.7279027353854154
531,5,1781,1,51,0.6411933186310392,-0.7279027353854154
532,5,2364,1,52,1.0519221348359755,-0.59099312998377
533,5,3183,1,53,1.0519221348359755,0.6411933186310391
534,5,2299,1,54,-0.7279027353854152,-0.7279027353854154
535,5,1407,1,55,2.284108583450785,-0.7279027353854154
536,5,1452,1,56,1.462650951040912,0.23046450242610272
537,5,1164,-1,57,-0.7279027353854152,1.0519221348359755
538,5,2983,1,58,0.23046450242610284,-0.7279027353854154
539,5,1923,1,59,-0.5909931299837697,-0.7279027353854154
540,5,876,-1,60,-0.7279027353854152,2.284108583450785
541,5,2857,1,61,-0.7279027353854152,-0.7279027353854154
542,5,2844,1,62,-0.7279027353854152,-0.7279027353854154
543,5,2683,1,63,1.462650951040912,-0.7279027353854154
544,5,1196,1,64,-0.7279027353854152,-0.7279027353854154
545,5,1227,-1,65,-0.7279027353854152,-0.59099312998377
546,5,1266,1,66,1.462650951040912,-0.7279027353854154
547,5,1336,1,67,1.0519221348359755,-0.7279027353854154
548,5,2497,1,68,1.462650951040912,-0.59099312998377
549,5,1481,1,69,1.462650951040912,-0.7279027353854154
550,5,2890,-1,70,0.23046450242610284,-0.7279027353854154
551,5,1645,-1,71,-0.5909931299837697,2.284108583450785
552,5,1103,1,72,-0.18026431377883337,-0.59099312998377
553,5,2478,1,73,-0.7279027353854152,-0.7279027353854154
554,5,1333,-1,74,-0.5909931299837697,1.873379767245848
555,5,1416,1,75,-0.5909931299837697,-0.7279027353854154
556,5,1183,-1,76,-0.7279027353854152,0.6411933186310391
557,5,2441,-1,77,-0.7279027353854152,-0.7279027353854154
558,5,1500,-1,78,-0.7279027353854152,-0.18026431377883353
559,5,1450,-1,79,-0.7279027353854152,1.462650951040912
560,5,1562,-1,80,-0.7279027353854152,0.91501252943433
561,5,1767,-1,81,-0.7279027353854152,-0.7279027353854154
562,5,888,-1,82,-0.5909931299837697,1.462650951040912
563,5,1439,1,83,-0.18026431377883337,-0.59099312998377
564,5,1676,1,84,1.0519221348359755,-0.7279027353854154
565,5,1546,-1,85,0.23046450242610284,0.91501252943433
566,5,1249,1,86,2.284108583450785,-0.7279027353854154
567,5,1145,1,87,1.873379767245848,-0.7279027353854154
568,5,1512,1,88,-0.7279027353854152,0.23046450242610272
569,5,1367,-1,89,-0.7279027353854152,1.462650951040912
570,5,1522,1,90,1.873379767245848,-0.59099312998377
571,5,1074,1,91,-0.7279027353854152,-0.7279027353854154
572,5,934,1,92,2.284108583450785,0.6411933186310391
573,5,1556,-1,93,-0.7279027353854152,0.6411933186310391
574,5,1114,-1,94,-0.7279027353854152,1.462650951040912
575,5,1621,-1,95,-0.7279027353854152,0.23046450242610272
576,5,2184,-1,96,-0.7279027353854152,-0.7279027353854154
577,5,1325,1,97,0.6411933186310392,-0.7279027353854154
578,5,1246,-1,98,-0.7279027353854152,-0.7279027353854154
579,5,1597,-1,99,-0.7279027353854152,-0.59099312998377
580,5,2734,1,100,1.462650951040912,1.462650951040912
581,5,1054,-1,101,-0.7279027353854152,1.0519221348359755
582,5,4260,1,102,-0.18026431377883337,-0.7279027353854154
583,5,1232,-1,103,-0.7279027353854152,-0.7279027353854154
584,5,1732,-1,104,-0.7279027353854152,-0.7279027353854154
585,5,843,-1,105,-0.7279027353854152,2.284108583450785
586,5,1250,1,106,-0.7279027353854152,-0.59099312998377
587,5,1576,1,107,-0.5909931299837697,-0.7279027353854154
588,5,1219,-1,108,1.0519221348359755,1.462650951040912
589,5,1461,-1,109,-0.7279027353854152,-0.7279027353854154
590,5,2581,-1,110,-0.7279027353854152,-0.59099312998377
591,5,985,1,111,1.873379767245848,-0.7279027353854154
592,5,961,1,112,1.462650951040912,-0.7279027353854154
593,5,978,1,113,1.462650951040912,-0.7279027353854154
594,5,4419,-1,114,-0.7279027353854152,-0.7279027353854154
595,5,1302,-1,115,-0.7279027353854152,-0.7279027353854154
596,5,1153,1,116,-0.7279027353854152,-0.7279027353854154
597,5,1033,-1,117,-0.5909931299837697,1.0519221348359755
598,5,957,1,118,1.873379767245848,0.6411933186310391
599,5,1271,1,119,-0.7279027353854152,-0.7279027353854154
600,8,4573,-1,0,-0.7044823098536436,-0.21863244098906237
601,8,3339,-1,1,-0.7044823098536436,0.2672174278755207
602,8,5410,1,2,2.210616903333854,-2.323981872735589
603,8,10236,1,3,-0.21863244098906054,0.2672174278755207
604,8,5784,-1,4,-0.7044823098536436,-0.21863244098906237
605,8,3272,1,5,1.2389171656046885,-0.7044823098536455
606,8,2593,1,6,0.26721742787552244,-0.21863244098906237
607,8,4628,1,7,1.2389171656046885,-0.21863244098906237
608,8,2522,1,8,-0.21863244098906054,-2.323981872735589
609,8,9605,-1,9,-0.21863244098906054,0.2672174278755207
610,8,1583,1,10,-1.676182047582809,0.7530672967401034
611,8,5220,-1,11,0.26721742787552244,1.238917165604687
612,8,7521,1,12,-0.21863244098906054,-0.21863244098906237
613,8,2083,-1,13,-2.3239818727355868,-0.7044823098536455
614,8,3647,-1,14,0.7530672967401051,0.2672174278755207
615,8,2790,-1,15,-2.3239818727355868,-0.7044823098536455
616,8,4538,-1,16,0.7530672967401051,1.238917165604687
617,8,2889,-1,17,-1.1903321787182266,0.7530672967401034
618,8,4539,1,18,-1.676182047582809,0.2672174278755207
619,8,2411,1,19,0.26721742787552244,0.2672174278755207
620,8,1791,-1,20,-1.1903321787182266,-0.21863244098906237
621,8,11451,-1,21,0.7530672967401051,-0.21863244098906237
622,8,12467,-1,22,-0.21863244098906054,0.7530672967401034
623,8,3323,-1,23,-0.7044823098536436,-0.7044823098536455
624,8,3139,-1,24,0.7530672967401051,-0.7044823098536455
625,8,6585,-1,25,0.26721742787552244,1.238917165604687
626,8,2175,1,26,0.7530672967401051,-1.1903321787182286
627,8,9514,1,27,-0.21863244098906054,1.238917165604687
628,8,2883,1,28,1.7247670344692712,1.238917165604687
629,8,6008,1,29,1.2389171656046885,0.2672174278755207
630,8,2064,1,30,1.2389171656046885,-1.6761820475828115
631,8,2596,-1,31,0.7530672967401051,-0.21863244098906237
632,8,7987,-1,32,0.7530672967401051,0.7530672967401034
633,8,3846,-1,33,0.26721742787552244,0.7530672967401034
634,8,4457,-1,34,-1.1903321787182266,0.7530672967401034
635,8,2606,-1,35,-0.7044823098536436,0.2672174278755207
636,8,2338,-1,36,-0.7044823098536436,-0.21863244098906237
637,8,9804,-1,37,-0.21863244098906054,0.2672174278755207
638,8,4005,1,38,2.210616903333854,0.7530672967401034
639,8,4239,1,39,0.26721742787552244,-0.7044823098536455
640,8,2777,1,40,-0.7044823098536436,-2.323981872735589
641,8,1763,-1,41,-2.3239818727355868,1.238917165604687
642,8,2346,-1,42,-0.21863244098906054,0.2672174278755207
643,8,1407,1,43,-0.21863244098906054,-0.7044823098536455
644,8,1645,1,44,1.7247670344692712,0.2672174278755207
645,8,2029,1,45,-0.21863244098906054,-0.7044823098536455
646,8,1395,1,46,-0.7044823098536436,-2.323981872735589
647,8,1998,-1,47,-0.21863244098906054,1.238917165604687
648,8,2131,1,48,0.26721742787552244,-0.21863244098906237
649,8,2170,-1,49,-1.1903321787182266,-0.21863244098906237
650,8,2591,-1,50,0.7530672967401051,0.7530672967401034
651,8,2569,-1,51,-1.676182047582809,1.238917165604687
652,8,2201,1,52,0.26721742787552244,0.7530672967401034
653,8,3203,-1,53,-1.676182047582809,-1.1903321787182286
654,8,1679,1,54,0.26721742787552244,0.7530672967401034
655,8,11481,-1,55,0.26721742787552244,-0.21863244098906237
656,8,2299,-1,56,0.7530672967401051,-0.21863244098906237
657,8,4372,-1,57,-1.1903321787182266,1.238917165604687
658,8,3020,1,58,1.2389171656046885,-0.7044823098536455
659,8,2617,-1,59,0.26721742787552244,0.2672174278755207
660,8,2997,1,60,0.7530672967401051,0.2672174278755207
661,8,3094,1,61,0.7530672967401051,-1.1903321787182286
662,8,1646,1,62,1.2389171656046885,0.7530672967401034
663,8,2145,-1,63,-1.1903321787182266,-0.7044823098536455
664,8,1666,1,64,-0.7044823098536436,0.2672174278755207
665,8,2162,1,65,1.2389171656046885,-0.21863244098906237
666,8,4106,-1,66,0.7530672967401051,1.238917165604687
667,8,3549,1,67,-0.21863244098906054,0.7530672967401034
668,8,2059,1,68,1.2389171656046885,0.7530672967401034
669,8,1836,1,69,0.7530672967401051,-1.1903321787182286
670,8,2797,-1,70,0.7530672967401051,2.2106169033338525
671,8,3814,1,71,-0.21863244098906054,-1.1903321787182286
672,8,1552,1,72,-0.7044823098536436,0.7530672967401034
673,8,1761,1,73,1.2389171656046885,0.2672174278755207
674,8,1830,1,74,0.26721742787552244,-0.7044823098536455
675,8,4063,-1,75,-0.7044823098536436,0.2672174278755207
676,8,2243,1,76,-0.21863244098906054,0.7530672967401034
677,8,2007,1,77,0.7530672967401051,-2.323981872735589
678,8,1930,1,78,-0.21863244098906054,-0.21863244098906237
679,8,1921,1,79,-0.21863244098906054,-0.7044823098536455
680,8,3888,1,80,-0.7044823098536436,1.238917165604687
681,8,2296,-1,81,-0.21863244098906054,-0.21863244098906237
682,8,2063,-1,82,0.7530672967401051,1.238917165604687
683,8,1723,1,83,0.7530672967401051,-1.6761820475828115
684,8,1541,-1,84,-0.21863244098906054,1.238917165604687
685,8,1576,-1,85,-2.3239818727355868,2.2106169033338525
686,8,1790,1,86,0.26721742787552244,-0.7044823098536455
687,8,1449,-1,87,0.26721742787552244,-0.21863244098906237
688,8,2175,1,88,-0.21863244098906054,-1.1903321787182286
689,8,2671,-1,89,-0.21863244098906054,-0.21863244098906237
690,8,3138,-1,90,-2.3239818727355868,-0.21863244098906237
691,8,2577,1,91,1.2389171656046885,0.7530672967401034
692,8,1451,1,92,-0.7044823098536436,-1.1903321787182286
693,8,1971,1,93,0.26721742787552244,-0.21863244098906237
694,8,1307,-1,94,0.26721742787552244,0.2672174278755207
695,8,2366,-1,95,-0.7044823098536436,0.2672174278755207
696,8,2330,-1,96,0.7530672967401051,0.2672174278755207
697,8,2702,-1,97,-1.1903321787182266,-1.6761820475828115
698,8,1837,-1,98,-1.1903321787182266,0.7530672967401034
699,8,2763,1,99,0.7530672967401051,-1.1903321787182286
700,8,1789,-1,100,0.26721742787552244,1.7247670344692696
701,8,2434,1,101,0.26721742787552244,0.2672174278755207
702,8,2746,-1,102,1.2389171656046885,-0.21863244098906237
703,8,1398,1,103,0.26721742787552244,-0.7044823098536455
704,8,1415,-1,104,-1.1903321787182266,0.7530672967401034
705,8,1682,-1,105,0.7530672967401051,1.238917165604687
706,8,1284,1,106,1.2389171656046885,-1.1903321787182286
707,8,2749,-1,107,0.26721742787552244,-1.6761820475828115
708,8,1729,1,108,1.2389171656046885,-2.323981872735589
709,8,1498,1,109,1.2389171656046885,0.7530672967401034
710,8,1516,1,110,-0.7044823098536436,-0.7044823098536455
711,8,1479,-1,111,-0.21863244098906054,0.2672174278755207
712,8,2344,1,112,1.2389171656046885,0.2672174278755207
713,8,1706,-1,113,-2.3239818727355868,0.7530672967401034
714,8,1624,-1,114,0.26721742787552244,1.238917165604687
715,8,1659,-1,115,-1.1903321787182266,-0.21863244098906237
716,8,1798,-1,116,1.2389171656046885,1.7247670344692696
717,8,1976,1,117,-0.21863244098906054,-1.1903321787182286
718,8,1669,-1,118,0.26721742787552244,-0.7044823098536455
719,8,1403,-1,119,-0.7044823098536436,1.238917165604687
720,9,3077,1,0,-0.40087507188179733,-0.40087507188179733
721,9,2443,-1,1,-0.8951046125579839,2.070272631499135
722,9,3851,-1,2,-0.40087507188179733,-1.3893341532341705
723,9,1674,-1,3,-2.542536414811939,0.5875840094705755
724,9,4085,1,4,0.09335446879438929,0.09335446879438929
725,9,4310,1,5,-0.40087507188179733,-0.40087507188179733
726,9,2851,-1,6,0.5875840094705755,-0.8951046125579839
727,9,6580,1,7,-0.40087507188179733,0.5875840094705755
728,9,2112,-1,8,0.5875840094705755,0.09335446879438929
729,9,3459,1,9,0.5875840094705755,0.5875840094705755
730,9,2083,1,10,0.5875840094705755,-2.542536414811939
731,9,3810,-1,11,0.09335446879438929,0.5875840094705755
732,9,2582,-1,12,0.09335446879438929,0.5875840094705755
733,9,1965,1,13,-0.40087507188179733,0.09335446879438929
734,9,2053,1,14,0.5875840094705755,2.070272631499135
735,9,2075,-1,15,-0.40087507188179733,-0.40087507188179733
736,9,2327,-1,16,0.5875840094705755,0.5875840094705755
737,9,7299,-1,17,0.09335446879438929,0.09335446879438929
738,9,3499,1,18,-0.40087507188179733,0.09335446879438929
739,9,2058,-1,19,-1.3893341532341705,1.5760430908229488
740,9,2343,-1,20,0.09335446879438929,-0.40087507188179733
741,9,3332,1,21,0.5875840094705755,0.09335446879438929
742,9,5118,1,22,0.5875840094705755,-0.40087507188179733
743,9,5818,1,23,1.0818135501467625,-0.40087507188179733
744,9,5480,1,24,-0.40087507188179733,0.5875840094705755
745,9,2262,1,25,2.070272631499135,-0.40087507188179733
746,9,1885,1,26,0.09335446879438929,-0.8951046125579839
747,9,4647,1,27,-0.8951046125579839,0.09335446879438929
748,9,2795,1,28,-2.542536414811939,0.09335446879438929
749,9,2391,-1,29,0.09335446879438929,0.09335446879438929
750,9,2132,-1,30,-0.40087507188179733,0.09335446879438929
751,9,1753,-1,31,-0.40087507188179733,0.5875840094705755
752,9,1565,1,32,0.5875840094705755,0.09335446879438929
753,9,5829,-1,33,0.09335446879438929,0.5875840094705755
754,9,1473,1,34,0.5875840094705755,0.5875840094705755
755,9,2756,-1,35,0.5875840094705755,1.0818135501467625
756,9,9179,1,36,-0.40087507188179733,0.5875840094705755
757,9,4856,1,37,0.5875840094705755,0.09335446879438929
758,9,4454,1,38,-0.40087507188179733,-0.40087507188179733
759,9,3803,-1,39,-0.40087507188179733,0.5875840094705755
760,9,3112,1,40,-0.40087507188179733,-0.40087507188179733
761,9,1836,1,41,-0.8951046125579839,0.5875840094705755
762,9,2887,-1,42,2.564502172175322,1.5760430908229488
763,9,1906,1,43,1.0818135501467625,0.5875840094705755
764,9,2401,-1,44,-0.40087507188179733,0.5875840094705755
765,9,3320,1,45,0.5875840094705755,-0.40087507188179733
766,9,1803,-1,46,-2.542536414811939,-0.8951046125579839
767,9,3124,1,47,-0.40087507188179733,-0.40087507188179733
768,9,2448,-1,48,-0.40087507188179733,2.070272631499135
769,9,2020,-1,49,0.09335446879438929,-0.8951046125579839
770,9,2198,-1,50,0.09335446879438929,0.09335446879438929
771,9,4057,-1,51,-1.3893341532341705,-0.40087507188179733
772,9,1457,-1,52,-2.542536414811939,-0.8951046125579839
773,9,2901,-1,53,2.070272631499135,0.5875840094705755
774,9,1649,-1,54,0.09335446879438929,0.5875840094705755
775,9,1330,1,55,0.5875840094705755,-0.40087507188179733
776,9,3243,1,56,-0.40087507188179733,0.09335446879438929
777,9,3476,1,57,0.5875840094705755,0.09335446879438929
778,9,4326,1,58,0.5875840094705755,0.5875840094705755
779,9,1492,1,59,-0.40087507188179733,0.5875840094705755
780,9,3291,1,60,0.5875840094705755,-1.3893341532341705
781,9,1686,-1,61,0.09335446879438929,-0.40087507188179733
782,9,1471,1,62,2.070272631499135,-0.8951046125579839
783,9,1613,-1,63,0.09335446879438929,0.5875840094705755
784,9,1615,1,64,-1.3893341532341705,-0.40087507188179733
785,9,2575,1,65,0.5875840094705755,0.09335446879438929
786,9,1202,-1,66,0.09335446879438929,0.5875840094705755
787,9,969,1,67,0.09335446879438929,0.5875840094705755
788,9,1993,1,68,0.09335446879438929,0.09335446879438929
789,9,3277,-1,69,-0.40087507188179733,2.564502172175322
790,9,1123,1,70,0.5875840094705755,-2.542536414811939
791,9,3412,1,71,0.5875840094705755,-0.40087507188179733
792,9,1591,1,72,0.5875840094705755,-2.542536414811939
793,9,1052,-1,73,-2.542536414811939,-0.40087507188179733
794,9,470,1,74,0.5875840094705755,-0.40087507188179733
795,9,3046,1,75,0.5875840094705755,0.09335446879438929
796,9,5454,-1,76,0.5875840094705755,2.070272631499135
797,9,1520,1,77,0.5875840094705755,0.5875840094705755
798,9,1898,-1,78,0.5875840094705755,0.5875840094705755
799,9,2551,1,79,0.09335446879438929,-0.40087507188179733
800,9,1843,1,80,0.5875840094705755,0.09335446879438929
801,9,1358,1,81,1.5760430908229488,2.564502172175322
802,9,2228,1,82,0.09335446879438929,0.5875840094705755
803,9,1717,-1,83,-0.40087507188179733,0.09335446879438929
804,9,1157,1,84,1.5760430908229488,-1.3893341532341705
805,9,1250,-1,85,-2.542536414811939,0.5875840094705755
806,9,1283,1,86,-0.40087507188179733,-2.542536414811939
807,9,1389,1,87,0.5875840094705755,-2.542536414811939
808,9,1805,-1,88,0.09335446879438929,0.5875840094705755
809,9,1956,-1,89,-0.8951046125579839,0.09335446879438929
810,9,2259,-1,90,-0.40087507188179733,-0.40087507188179733
811,9,1560,-1,91,-1.3893341532341705,0.5875840094705755
812,9,974,-1,92,0.5875840094705755,0.5875840094705755
813,9,1270,1,93,0.5875840094705755,0.5875840094705755
814,9,1251,-1,94,-2.542536414811939,0.5875840094705755
815,9,1576,-1,95,-0.40087507188179733,1.0818135501467625
816,9,1882,1,96,0.09335446879438929,-0.40087507188179733
817,9,2316,1,97,2.070272631499135,0.5875840094705755
818,9,884,-1,98,-2.542536414811939,0.5875840094705755
819,9,1595,-1,99,0.5875840094705755,-0.40087507188179733
820,9,2383,-1,100,0.5875840094705755,-0.40087507188179733
821,9,1810,1,101,0.09335446879438929,0.09335446879438929
822,9,1526,-1,102,0.5875840094705755,0.5875840094705755
823,9,2161,1,103,0.09335446879438929,0.5875840094705755
824,9,1758,-1,104,-0.40087507188179733,-0.40087507188179733
825,9,1407,-1,105,-0.40087507188179733,-0.40087507188179733
826,9,1908,1,106,0.5875840094705755,0.09335446879438929
827,9,3460,-1,107,-0.40087507188179733,0.5875840094705755
828,9,1847,1,108,-0.8951046125579839,-2.542536414811939
829,9,2685,-1,109,0.5875840094705755,0.5875840094705755
830,9,1692,1,110,-0.40087507188179733,-1.3893341532341705
831,9,1254,1,111,-0.8951046125579839,-2.542536414811939
832,9,1621,-1,112,0.5875840094705755,-0.40087507188179733
833,9,1366,-1,113,0.5875840094705755,-0.40087507188179733
834,9,1707,-1,114,0.09335446879438929,-2.542536414811939
835,9,1089,1,115,0.5875840094705755,0.09335446879438929
836,9,1351,-1,116,0.09335446879438929,-0.40087507188179733
837,9,2537,-1,117,-0.40087507188179733,-0.40087507188179733
838,9,1559,1,118,2.564502172175322,-0.40087507188179733
839,9,1358,-1,119,-0.40087507188179733,0.5875840094705755
840,10,1836,-1,0,-0.27217385810611033,-0.5690907942218688
841,10,4858,-1,1,-1.4598416025691434,-0.5690907942218688
842,10,2161,-1,2,0.6185769502411643,-0.27217385810611033
843,10,3118,1,3,-0.27217385810611033,-1.7567585386849016
844,10,3729,-1,4,-1.7567585386849016,-1.4598416025691434
845,10,4798,-1,5,-0.27217385810611033,2.400078566935714
846,10,2374,1,6,0.3216600141254058,-0.27217385810611033
847,10,1682,-1,7,-0.27217385810611033,-0.5690907942218688
848,10,2076,1,8,-0.27217385810611033,-0.27217385810611033
849,10,2728,1,9,0.02474307800964775,-1.4598416025691434
850,10,4007,-1,10,-0.5690907942218688,-0.27217385810611033
851,10,1498,-1,11,-0.5690907942218688,-0.27217385810611033
852,10,1177,-1,12,0.02474307800964775,-0.27217385810611033
853,10,1643,1,13,0.3216600141254058,-0.5690907942218688
854,10,4121,1,14,1.5093277585884388,-0.27217385810611033
855,10,3232,-1,15,1.5093277585884388,-0.5690907942218688
856,10,1724,1,16,-0.27217385810611033,-0.27217385810611033
857,10,3165,1,17,1.5093277585884388,-1.7567585386849016
858,10,3505,-1,18,-1.4598416025691434,2.400078566935714
859,10,3333,-1,19,-0.5690907942218688,-0.27217385810611033
860,10,3004,-1,20,0.6185769502411643,1.2124108224726808
861,10,4601,1,21,-0.27217385810611033,-1.1629246664533852
862,10,4246,1,22,1.5093277585884388,0.3216600141254058
863,10,3601,-1,23,-1.4598416025691434,-0.5690907942218688
864,10,5343,-1,24,-0.5690907942218688,1.5093277585884388
865,10,2599,1,25,1.5093277585884388,0.02474307800964775
866,10,3480,1,26,0.6185769502411643,-0.27217385810611033
867,10,5000,-1,27,-1.7567585386849016,-0.27217385810611033
868,10,2194,1,28,-0.5690907942218688,0.3216600141254058
869,10,5391,1,29,-0.5690907942218688,-0.5690907942218688
870,10,3898,1,30,-0.5690907942218688,-0.5690907942218688
871,10,2451,1,31,2.400078566935714,-0.27217385810611033
872,10,5186,1,32,2.400078566935714,1.5093277585884388
873,10,2889,-1,33,-0.5690907942218688,-0.27217385810611033
874,10,2113,1,34,-0.27217385810611033,0.02474307800964775
875,10,2534,-1,35,-0.5690907942218688,2.103161630819955
876,10,5470,-1,36,-0.27217385810611033,-0.27217385810611033
877,10,2991,-1,37,-0.5690907942218688,0.02474307800964775
878,10,2434,1,38,-0.5690907942218688,0.6185769502411643
879,10,2875,-1,39,1.5093277585884388,2.400078566935714
880,10,2465,-1,40,-0.8660077303376269,-0.27217385810611033
881,10,2565,-1,41,-0.27217385810611033,0.6185769502411643
882,10,3585,-1,42,-1.7567585386849016,-0.27217385810611033
883,10,3663,1,43,0.6185769502411643,-1.1629246664533852
884,10,2049,1,44,-0.27217385810611033,-0.27217385810611033
885,10,4382,1,45,2.400078566935714,-0.27217385810611033
886,10,2886,-1,46,-0.27217385810611033,-0.27217385810611033
887,10,3060,-1,47,-0.27217385810611033,1.5093277585884388
888,10,2653,-1,48,-0.5690907942218688,-0.5690907942218688
889,10,4411,-1,49,-0.27217385810611033,-0.5690907942218688
890,10,3190,1,50,-0.27217385810611033,0.02474307800964775
891,10,2469,-1,51,0.3216600141254058,-0.5690907942218688
892,10,2123,-1,52,-0.27217385810611033,2.103161630819955
893,10,2445,-1,53,-0.27217385810611033,-0.5690907942218688
894,10,1773,1,54,-1.4598416025691434,-1.7567585386849016
895,10,3000,-1,55,-1.4598416025691434,0.02474307800964775
896,10,2686,-1,56,-0.27217385810611033,1.2124108224726808
897,10,2367,-1,57,0.3216600141254058,1.5093277585884388
898,10,1749,1,58,0.02474307800964775,-0.5690907942218688
899,10,3833,1,59,2.400078566935714,1.5093277585884388
900,10,4784,-1,60,0.6185769502411643,0.3216600141254058
901,10,1730,1,61,0.6185769502411643,-0.5690907942218688
902,10,1077,-1,62,-0.5690907942218688,0.3216600141254058
903,10,3814,-1,63,-0.27217385810611033,0.6185769502411643
904,10,3089,1,64,1.5093277585884388,-0.27217385810611033
905,10,1654,1,65,0.02474307800964775,1.5093277585884388
906,10,2117,-1,66,-0.27217385810611033,-0.27217385810611033
907,10,2244,-1,67,-1.7567585386849016,1.5093277585884388
908,10,3364,1,68,0.3216600141254058,-1.1629246664533852
909,10,1949,1,69,-0.5690907942218688,-0.27217385810611033
910,10,2978,-1,70,-0.27217385810611033,-0.27217385810611033
911,10,1889,1,71,-0.5690907942218688,-1.4598416025691434
912,10,2417,-1,72,-1.1629246664533852,-0.27217385810611033
913,10,1857,1,73,-0.27217385810611033,-0.5690907942218688
914,10,1438,1,74,-0.27217385810611033,-0.5690907942218688
915,10,5863,1,75,-0.5690907942218688,1.5093277585884388
916,10,1513,1,76,1.5093277585884388,-0.8660077303376269
917,10,2101,1,77,-0.5690907942218688,-1.1629246664533852
918,10,2523,-1,78,-0.27217385810611033,2.400078566935714
919,10,2697,1,79,1.5093277585884388,-1.4598416025691434
920,10,3219,-1,80,-0.5690907942218688,0.6185769502411643
921,10,2174,-1,81,-0.27217385810611033,-0.5690907942218688
922,10,2025,-1,82,-0.5690907942218688,-0.27217385810611033
923,10,1955,-1,83,-0.8660077303376269,1.5093277585884388
924,10,2076,1,84,2.400078566935714,-1.4598416025691434
925,10,1642,1,85,-0.27217385810611033,0.6185769502411643
926,10,2148,1,86,1.2124108224726808,-0.27217385810611033
927,10,2053,1,87,0.3216600141254058,0.6185769502411643
928,10,1541,1,88,2.103161630819955,-0.5690907942218688
929,10,2534,-1,89,1.5093277585884388,2.400078566935714
930,10,1899,-1,90,-0.27217385810611033,-0.27217385810611033
931,10,2392,-1,91,-1.1629246664533852,0.3216600141254058
932,10,3847,1,92,-0.27217385810611033,-0.5690907942218688
933,10,2619,-1,93,-1.1629246664533852,0.6185769502411643
934,10,4180,1,94,0.6185769502411643,-0.27217385810611033
935,10,1936,1,95,1.2124108224726808,0.6185769502411643
936,10,4482,1,96,-0.27217385810611033,-0.8660077303376269
937,10,1610,1,97,2.103161630819955,-0.27217385810611033
938,10,2171,-1,98,-0.27217385810611033,1.5093277585884388
939,10,1962,-1,99,-0.5690907942218688,-0.5690907942218688
940,10,2607,1,100,-0.5690907942218688,-1.4598416025691434
941,10,2582,-1,101,-0.5690907942218688,-0.27217385810611033
942,10,2051,-1,102,1.5093277585884388,-0.5690907942218688
943,10,1908,1,103,-0.5690907942218688,-0.27217385810611033
944,10,1922,1,104,-0.27217385810611033,-0.27217385810611033
945,10,2140,-1,105,0.6185769502411643,-0.5690907942218688
946,10,3448,1,106,-0.27217385810611033,-1.7567585386849016
947,10,2372,1,107,-0.5690907942218688,-0.27217385810611033
948,10,2207,-1,108,-0.27217385810611033,-0.27217385810611033
949,10,2572,-1,109,1.5093277585884388,0.02474307800964775
950,10,1473,-1,110,-0.27217385810611033,-0.27217385810611033
951,10,4593,-1,111,-1.4598416025691434,1.5093277585884388
952,10,1610,-1,112,-0.27217385810611033,0.3216600141254058
953,10,3948,1,113,-0.27217385810611033,-0.5690907942218688
954,10,3397,1,114,-0.27217385810611033,-0.27217385810611033
955,10,2886,-1,115,-1.1629246664533852,-0.5690907942218688
956,10,2366,-1,116,0.02474307800964775,1.5093277585884388
957,10,1895,-1,117,0.02474307800964775,-0.27217385810611033
958,10,5131,-1,118,-0.27217385810611033,2.400078566935714
959,10,3043,1,119,2.400078566935714,-0.27217385810611033
960,11,2507,-1,0,0.07223347474429319,0.8848600656175917
961,11,2134,-1,1,0.6139845353264918,-1.0112686464201026
962,11,3104,1,2,0.6139845353264918,0.8848600656175917
963,11,2115,-1,3,-1.282144176711203,1.4266111261997907
964,11,2664,-1,4,0.34310900503539266,1.4266111261997907
965,11,3493,-1,5,-1.0112686464201035,-1.2821441767112023
966,11,2265,-1,6,0.34310900503539266,-0.7403931161290036
967,11,1639,1,7,1.6974866564908888,1.6974866564908897
968,11,1956,1,8,-0.7403931161290045,-0.7403931161290036
969,11,3777,-1,9,-1.0112686464201035,0.3431090050353935
970,11,2185,1,10,0.07223347474429319,0.3431090050353935
971,11,1818,1,11,1.15573559590869,-1.5530197070023013
972,11,2958,1,12,0.6139845353264918,-0.46951758583790454
973,11,3672,1,13,0.34310900503539266,-0.46951758583790454
974,11,3957,1,14,0.6139845353264918,-1.2821441767112023
975,11,1934,-1,15,-1.553019707002302,-1.2821441767112023
976,11,2024,1,16,-0.7403931161290045,1.9683621867819887
977,11,5394,1,17,0.07223347474429319,0.072233474744294
978,11,2211,-1,18,0.6139845353264918,1.1557355959086908
979,11,6702,-1,19,-1.553019707002302,-1.2821441767112023
980,11,1694,1,20,1.15573559590869,0.6139845353264926
981,11,2585,1,21,-0.7403931161290045,-1.0112686464201026
982,11,2005,-1,22,-0.7403931161290045,0.6139845353264926
983,11,2527,-1,23,0.8848600656175908,-0.46951758583790454
984,11,2909,1,24,-1.282144176711203,0.072233474744294
985,11,6158,1,25,0.6139845353264918,1.9683621867819887
986,11,5470,-1,26,-1.282144176711203,0.072233474744294
987,11,3018,1,27,-1.553019707002302,0.6139845353264926
988,11,2168,-1,28,0.8848600656175908,-0.7403931161290036
989,11,1622,-1,29,-0.7403931161290045,0.3431090050353935
990,11,2725,-1,30,0.6139845353264918,0.8848600656175917
991,11,3982,1,31,-1.282144176711203,-0.46951758583790454
992,11,2130,-1,32,0.8848600656175908,-1.2821441767112023
993,11,6062,1,33,0.34310900503539266,1.1557355959086908
994,11,2597,-1,34,1.6974866564908888,-1.5530197070023013
995,11,3046,1,35,0.8848600656175908,0.3431090050353935
996,11,2818,1,36,0.6139845353264918,0.8848600656175917
997,11,4829,-1,37,-0.7403931161290045,1.4266111261997907
998,11,2374,-1,38,-1.553019707002302,1.1557355959086908
999,11,10790,1,39,-0.7403931161290045,-0.46951758583790454
1000,11,2493,-1,40,1.4266111261997898,-1.2821441767112023
1001,11,3783,-1,41,0.8848600656175908,0.6139845353264926
1002,11,2532,1,42,0.6139845353264918,-0.7403931161290036
1003,11,3582,1,43,0.34310900503539266,0.8848600656175917
1004,11,1617,-1,44,-0.46951758583790537,-0.46951758583790454
1005,11,2199,-1,45,1.4266111261997898,-0.7403931161290036
1006,11,4617,-1,46,0.34310900503539266,0.8848600656175917
1007,11,1591,1,47,0.8848600656175908,0.072233474744294
1008,11,1837,1,48,-1.282144176711203,0.8848600656175917
1009,11,3655,-1,49,0.6139845353264918,0.3431090050353935
1010,11,2680,-1,50,-1.553019707002302,1.1557355959086908
1011,11,2675,1,51,-1.282144176711203,0.6139845353264926
1012,11,1895,1,52,1.4266111261997898,0.3431090050353935
1013,11,3099,-1,53,0.6139845353264918,0.072233474744294
1014,11,5649,-1,54,-0.7403931161290045,-0.7403931161290036
1015,11,1249,1,55,1.15573559590869,-1.5530197070023013
1016,11,1810,-1,56,1.6974866564908888,1.6974866564908897
1017,11,2423,-1,57,1.4266111261997898,0.3431090050353935
1018,11,1467,1,58,1.15573559590869,0.6139845353264926
1019,11,1796,1,59,-0.7403931161290045,-1.5530197070023013
1020,11,2933,1,60,-1.282144176711203,-1.0112686464201026
1021,11,1836,1,61,-0.46951758583790537,0.6139845353264926
1022,11,5354,1,62,-0.7403931161290045,1.1557355959086908
1023,11,3919,1,63,0.6139845353264918,1.1557355959086908
1024,11,1549,-1,64,-0.46951758583790537,0.3431090050353935
1025,11,3875,1,65,1.15573559590869,0.072233474744294
1026,11,2389,-1,66,-0.46951758583790537,-1.2821441767112023
1027,11,2133,-1,67,-1.282144176711203,0.6139845353264926
1028,11,2735,-1,68,-0.7403931161290045,-0.7403931161290036
1029,11,1089,-1,69,0.8848600656175908,-1.2821441767112023
1030,11,1859,1,70,-1.553019707002302,1.6974866564908897
1031,11,2137,1,71,-1.282144176711203,-1.5530197070023013
1032,11,1893,1,72,-1.282144176711203,-0.7403931161290036
1033,11,2049,-1,73,-1.553019707002302,-1.5530197070023013
1034,11,1959,1,74,-0.7403931161290045,0.3431090050353935
1035,11,2156,-1,75,-1.282144176711203,1.6974866564908897
1036,11,3751,-1,76,0.6139845353264918,1.4266111261997907
1037,11,3011,1,77,-1.282144176711203,-1.5530197070023013
1038,11,3907,1,78,0.6139845353264918,-0.46951758583790454
1039,11,3688,1,79,0.34310900503539266,-1.5530197070023013
1040,11,2351,-1,80,1.15573559590869,0.3431090050353935
1041,11,1648,1,81,-1.553019707002302,-1.5530197070023013
1042,11,1913,1,82,1.4266111261997898,-1.2821441767112023
1043,11,1880,-1,83,0.07223347474429319,-1.2821441767112023
1044,11,8454,1,84,-0.46951758583790537,0.6139845353264926
1045,11,1583,1,85,-1.0112686464201035,0.6139845353264926
1046,11,3631,1,86,1.4266111261997898,0.6139845353264926
1047,11,2197,-1,87,0.6139845353264918,-1.2821441767112023
1048,11,2222,-1,88,-0.7403931161290045,0.6139845353264926
1049,11,1789,1,89,-1.282144176711203,1.4266111261997907
1050,11,3738,-1,90,-1.553019707002302,0.3431090050353935
1051,11,2183,1,91,1.6974866564908888,-1.2821441767112023
1052,11,2075,-1,92,-0.7403931161290045,-1.2821441767112023
1053,11,1883,-1,93,0.6139845353264918,1.1557355959086908
1054,11,1403,1,94,0.34310900503539266,-0.7403931161290036
1055,11,2909,-1,95,-1.282144176711203,0.8848600656175917
1056,11,1189,-1,96,0.8848600656175908,0.6139845353264926
1057,11,1220,1,97,-0.7403931161290045,-0.7403931161290036
1058,11,1507,1,98,-0.7403931161290045,0.8848600656175917
1059,11,1428,1,99,0.34310900503539266,0.6139845353264926
1060,11,1689,1,100,0.07223347474429319,0.6139845353264926
1061,11,2218,-1,101,0.07223347474429319,1.1557355959086908
1062,11,4202,1,102,0.34310900503539266,-1.0112686464201026
1063,11,2067,-1,103,0.34310900503539266,0.072233474744294
1064,11,7225,-1,104,1.15573559590869,0.6139845353264926
1065,11,2522,-1,105,1.15573559590869,-0.7403931161290036
1066,11,2408,-1,106,-1.553019707002302,-0.7403931161290036
1067,11,1628,1,107,-0.46951758583790537,-0.46951758583790454
1068,11,2775,-1,108,-1.0112686464201035,-0.7403931161290036
1069,11,2350,-1,109,1.968362186781988,0.6139845353264926
1070,11,1686,1,110,0.07223347474429319,-1.2821441767112023
1071,11,3420,-1,111,0.8848600656175908,0.3431090050353935
1072,11,6061,-1,112,0.34310900503539266,1.4266111261997907
1073,11,2435,-1,113,0.07223347474429319,0.072233474744294
1074,11,3465,1,114,-0.46951758583790537,0.8848600656175917
1075,11,2452,-1,115,1.968362186781988,-0.7403931161290036
1076,11,1619,1,116,0.6139845353264918,-0.7403931161290036
1077,11,4774,-1,117,0.6139845353264918,-1.5530197070023013
1078,11,4797,1,118,-0.46951758583790537,-0.7403931161290036
1079,11,2442,1,119,0.8848600656175908,0.6139845353264926
1080,12,3814,1,0,0.7669649888473705,-0.7669649888473694
1081,12,3772,-1,1,-0.76696498884737,-1.1504474832710547
1082,12,2437,1,2,-0.38348249442368487,-0.7669649888473694
1083,12,4887,-1,3,-0.76696498884737,-1.1504474832710547
1084,12,2871,1,4,0.38348249442368515,-0.3834824944236841
1085,12,3340,1,5,-1.1504474832710552,-1.53392997769474
1086,12,2786,-1,6,-1.1504474832710552,-0.3834824944236841
1087,12,2839,-1,7,2.8383406323324224e-16,1.5339299776947415
1088,12,1985,-1,8,-0.76696498884737,1.9174124721184271
1089,12,2034,-1,9,-0.38348249442368487,0.3834824944236861
1090,12,2185,-1,10,-0.38348249442368487,1.1504474832710565
1091,12,5349,-1,11,-0.76696498884737,-0.3834824944236841
1092,12,2601,-1,12,-0.38348249442368487,0.7669649888473716
1093,12,3060,-1,13,0.7669649888473705,1.9174124721184271
1094,12,3909,1,14,1.5339299776947404,-0.3834824944236841
1095,12,3604,1,15,1.5339299776947404,-0.3834824944236841
1096,12,3990,1,16,-0.38348249442368487,1.1353362529329694e-15
1097,12,2063,1,17,0.7669649888473705,-0.7669649888473694
1098,12,5749,-1,18,-0.38348249442368487,1.1353362529329694e-15
1099,12,2127,1,19,2.8383406323324224e-16,-0.3834824944236841
1100,12,1975,1,20,2.8383406323324224e-16,-0.7669649888473694
1101,12,5517,1,21,1.9174124721184258,0.7669649888473716
1102,12,1876,1,22,1.1504474832710554,0.3834824944236861
1103,12,1907,-1,23,-1.53392997769474,1.1353362529329694e-15
1104,12,1914,1,24,0.38348249442368515,-1.1504474832710547
1105,12,1945,-1,25,1.5339299776947404,1.9174124721184271
1106,12,1899,1,26,2.8383406323324224e-16,-1.1504474832710547
1107,12,2048,-1,27,2.8383406323324224e-16,1.5339299776947415
1108,12,1536,-1,28,-1.9174124721184251,1.1353362529329694e-15
1109,12,1781,1,29,1.9174124721184258,-1.1504474832710547
1110,12,1413,1,30,-0.38348249442368487,-0.7669649888473694
1111,12,2923,-1,31,-0.76696498884737,0.3834824944236861
1112,12,6754,1,32,0.38348249442368515,1.1353362529329694e-15
1113,12,1704,-1,33,-1.1504474832710552,-0.7669649888473694
1114,12,5374,1,34,1.5339299776947404,1.1353362529329694e-15
1115,12,5338,1,35,1.9174124721184258,1.1353362529329694e-15
1116,12,5539,-1,36,2.8383406323324224e-16,1.1353362529329694e-15
1117,12,1817,-1,37,-1.1504474832710552,1.1353362529329694e-15
1118,12,2192,-1,38,-0.76696498884737,-0.3834824944236841
1119,12,2392,-1,39,-0.38348249442368487,-0.3834824944236841
1120,12,3952,1,40,0.7669649888473705,1.9174124721184271
1121,12,1624,-1,41,0.38348249442368515,1.1353362529329694e-15
1122,12,1675,-1,42,0.38348249442368515,-0.3834824944236841
1123,12,1420,1,43,-1.1504474832710552,1.9174124721184271
1124,12,2088,-1,44,-0.38348249442368487,-1.1504474832710547
1125,12,1738,-1,45,2.8383406323324224e-16,-1.53392997769474
1126,12,2548,-1,46,1.9174124721184258,1.9174124721184271
1127,12,3065,-1,47,0.7669649888473705,0.3834824944236861
1128,12,1321,1,48,-0.38348249442368487,1.1353362529329694e-15
1129,12,1476,1,49,-1.1504474832710552,1.9174124721184271
1130,12,1372,1,50,-0.76696498884737,-0.3834824944236841
1131,12,2000,-1,51,1.1504474832710554,-0.3834824944236841
1132,12,1298,-1,52,-0.38348249442368487,-1.53392997769474
1133,12,1903,-1,53,1.5339299776947404,1.1353362529329694e-15
1134,12,1905,1,54,-1.1504474832710552,1.5339299776947415
1135,12,1804,1,55,2.8383406323324224e-16,0.3834824944236861
1136,12,1796,-1,56,2.8383406323324224e-16,-0.7669649888473694
1137,12,1958,1,57,-1.1504474832710552,1.1353362529329694e-15
1138,12,1995,-1,58,-0.38348249442368487,-0.3834824944236841
1139,12,1938,-1,59,-1.1504474832710552,-0.7669649888473694
1140,12,1798,1,60,-0.76696498884737,0.7669649888473716
1141,12,1395,1,61,-1.9174124721184251,-1.1504474832710547
1142,12,1415,1,62,-1.53392997769474,1.9174124721184271
1143,12,2794,1,63,2.8383406323324224e-16,1.5339299776947415
1144,12,677,-1,64,-0.76696498884737,-0.3834824944236841
1145,12,2103,1,65,-0.38348249442368487,1.5339299776947415
1146,12,1777,-1,66,2.8383406323324224e-16,-0.7669649888473694
1147,12,6047,-1,67,-0.38348249442368487,-0.7669649888473694
1148,12,2316,1,68,-0.38348249442368487,0.3834824944236861
1149,12,2108,-1,69,0.7669649888473705,1.1353362529329694e-15
1150,12,2569,-1,70,0.7669649888473705,-0.3834824944236841
1151,12,2056,-1,71,2.8383406323324224e-16,-0.3834824944236841
1152,12,1548,1,72,0.38348249442368515,1.1504474832710565
1153,12,1501,1,73,-1.53392997769474,-1.1504474832710547
1154,12,1038,-1,74,2.8383406323324224e-16,-1.1504474832710547
1155,12,1620,1,75,-0.38348249442368487,1.5339299776947415
1156,12,2522,-1,76,-0.38348249442368487,-0.3834824944236841
1157,12,1519,-1,77,2.8383406323324224e-16,-1.917412472118425
1158,12,4272,1,78,2.8383406323324224e-16,0.3834824944236861
1159,12,1132,-1,79,1.9174124721184258,-0.3834824944236841
1160,12,2341,1,80,1.9174124721184258,1.5339299776947415
1161,12,1387,1,81,1.9174124721184258,-1.53392997769474
1162,12,3092,-1,82,-1.1504474832710552,0.3834824944236861
1163,12,2529,-1,83,-0.38348249442368487,-0.3834824944236841
1164,12,1431,-1,84,-1.53392997769474,-0.3834824944236841
1165,12,1272,1,85,-0.76696498884737,-1.1504474832710547
1166,12,1545,1,86,1.9174124721184258,-1.1504474832710547
1167,12,2115,-1,87,2.8383406323324224e-16,1.9174124721184271
1168,12,1489,1,88,1.5339299776947404,-1.1504474832710547
1169,12,2337,-1,89,-0.76696498884737,0.7669649888473716
1170,12,5734,1,90,-1.1504474832710552,-0.3834824944236841
1171,12,1360,1,91,-0.38348249442368487,-0.7669649888473694
1172,12,1586,1,92,0.38348249442368515,-0.7669649888473694
1173,12,1674,-1,93,-0.76696498884737,1.1353362529329694e-15
1174,12,1752,-1,94,-1.1504474832710552,1.9174124721184271
1175,12,1820,-1,95,-0.38348249442368487,1.9174124721184271
1176,12,1977,1,96,-1.1504474832710552,-1.917412472118425
1177,12,1517,1,97,0.38348249442368515,1.1353362529329694e-15
1178,12,1998,-1,98,1.9174124721184258,1.9174124721184271
1179,12,2126,-1,99,-0.76696498884737,1.1353362529329694e-15
1180,12,1709,-1,100,-0.38348249442368487,1.5339299776947415
1181,12,2013,-1,101,2.8383406323324224e-16,0.3834824944236861
1182,12,2873,1,102,-0.38348249442368487,-0.7669649888473694
1183,12,5345,-1,103,-1.1504474832710552,-0.7669649888473694
1184,12,1652,1,104,1.5339299776947404,1.1353362529329694e-15
1185,12,1959,-1,105,-0.76696498884737,1.1353362529329694e-15
1186,12,1481,-1,106,2.8383406323324224e-16,0.7669649888473716
1187,12,1497,1,107,1.9174124721184258,-1.1504474832710547
1188,12,2102,1,108,0.38348249442368515,-0.3834824944236841
1189,12,1171,1,109,1.9174124721184258,-0.7669649888473694
1190,12,1670,-1,110,-0.76696498884737,0.7669649888473716
1191,12,1854,-1,111,2.8383406323324224e-16,-0.3834824944236841
1192,12,1275,1,112,0.7669649888473705,-0.7669649888473694
1193,12,3400,1,113,1.5339299776947404,-0.3834824944236841
1194,12,6826,1,114,1.9174124721184258,0.7669649888473716
1195,12,3907,-1,115,0.38348249442368515,0.7669649888473716
1196,12,1393,1,116,-0.38348249442368487,-1.1504474832710547
1197,12,3952,1,117,2.8383406323324224e-16,1.1353362529329694e-15
1198,12,1515,-1,118,-0.38348249442368487,0.3834824944236861
1199,12,1843,-1,119,-0.76696498884737,-0.3834824944236841
1200,13,2956,-1,0,-1.7924934080948152,-0.8752259924386195
1201,13,2454,1,1,0.959308838873772,-0.4165922846105215
1202,13,3689,1,2,-0.1872754306964727,-1.5631765541807663
1203,13,3204,-1,3,0.27135827713162525,0.042041423217576444
1204,13,2595,-1,4,1.876576254529968,1.188625692787821
1205,13,2382,1,5,0.5006751310456744,-1.3338597002667172
1206,13,3263,-1,6,0.27135827713162525,0.27135827713162525
1207,13,2722,1,7,-0.1872754306964727,1.876576254529968
1208,13,4175,1,8,0.7299919849597232,-1.5631765541807663
1209,13,5743,1,9,-1.5631765541807663,-2.251127115922913
1210,13,3413,1,10,0.27135827713162525,1.4179425467018703
1211,13,2708,1,11,-0.8752259924386195,-1.1045428463526683
1212,13,3229,-1,12,-2.0218102620088643,1.4179425467018703
1213,13,2054,1,13,0.042041423217576444,-1.3338597002667172
1214,13,2506,1,14,-0.1872754306964727,-0.6459091385245703
1215,13,4890,1,15,0.27135827713162525,-0.8752259924386195
1216,13,3795,-1,16,0.27135827713162525,0.27135827713162525
1217,13,2899,-1,17,0.042041423217576444,-0.6459091385245703
1218,13,3657,-1,18,0.959308838873772,1.4179425467018703
1219,13,2598,1,19,0.7299919849597232,0.042041423217576444
1220,13,6073,-1,20,0.042041423217576444,-1.5631765541807663
1221,13,5231,-1,21,-0.8752259924386195,1.4179425467018703
1222,13,2200,1,22,0.5006751310456744,0.7299919849597232
1223,13,4621,1,23,-1.1045428463526683,0.7299919849597232
1224,13,1960,-1,24,0.27135827713162525,0.959308838873772
1225,13,7929,1,25,0.959308838873772,0.7299919849597232
1226,13,2436,-1,26,-0.1872754306964727,1.4179425467018703
1227,13,2712,-1,27,-2.251127115922913,0.7299919849597232
1228,13,4729,-1,28,0.959308838873772,0.27135827713162525
1229,13,5774,1,29,-0.8752259924386195,-1.1045428463526683
1230,13,2578,-1,30,0.042041423217576444,0.5006751310456744
1231,13,3228,-1,31,-0.4165922846105215,0.27135827713162525
1232,13,2676,-1,32,0.5006751310456744,-0.8752259924386195
1233,13,5374,-1,33,1.4179425467018703,0.7299919849597232
1234,13,2111,-1,34,-1.5631765541807663,0.27135827713162525
1235,13,4374,-1,35,0.5006751310456744,1.4179425467018703
1236,13,2281,1,36,0.959308838873772,0.27135827713162525
1237,13,2216,-1,37,0.7299919849597232,-0.6459091385245703
1238,13,3987,1,38,-1.5631765541807663,0.959308838873772
1239,13,938,-1,39,1.188625692787821,0.042041423217576444
1240,13,3506,-1,40,-1.5631765541807663,0.5006751310456744
1241,13,3359,1,41,0.27135827713162525,-0.4165922846105215
1242,13,1600,1,42,0.7299919849597232,0.7299919849597232
1243,13,1479,-1,43,-1.3338597002667172,0.042041423217576444
1244,13,2993,-1,44,0.27135827713162525,0.5006751310456744
1245,13,1505,-1,45,1.4179425467018703,-2.0218102620088643
1246,13,1567,1,46,-1.7924934080948152,1.4179425467018703
1247,13,3992,1,47,0.959308838873772,-0.8752259924386195
1248,13,2794,-1,48,-1.1045428463526683,0.7299919849597232
1249,13,1367,-1,49,-2.251127115922913,-1.5631765541807663
1250,13,2336,-1,50,0.7299919849597232,0.959308838873772
1251,13,1558,1,51,0.27135827713162525,0.27135827713162525
1252,13,1423,-1,52,0.27135827713162525,0.959308838873772
1253,13,4600,1,53,0.27135827713162525,0.7299919849597232
1254,13,2577,-1,54,-0.1872754306964727,0.7299919849597232
1255,13,1729,1,55,0.7299919849597232,-2.251127115922913
1256,13,2359,-1,56,0.959308838873772,-1.5631765541807663
1257,13,4380,-1,57,0.27135827713162525,-0.4165922846105215
1258,13,3733,-1,58,-0.8752259924386195,0.27135827713162525
1259,13,2880,-1,59,-0.4165922846105215,-1.7924934080948152
1260,13,1793,1,60,1.4179425467018703,0.5006751310456744
1261,13,4008,-1,61,-0.8752259924386195,-0.6459091385245703
1262,13,2158,-1,62,-0.6459091385245703,0.27135827713162525
1263,13,1844,1,63,0.042041423217576444,0.7299919849597232
1264,13,2946,1,64,1.4179425467018703,-0.8752259924386195
1265,13,5357,1,65,0.959308838873772,0.27135827713162525
1266,13,2331,1,66,-0.6459091385245703,0.7299919849597232
1267,13,2172,-1,67,-2.0218102620088643,-0.1872754306964727
1268,13,3082,1,68,1.4179425467018703,0.5006751310456744
1269,13,3827,1,69,1.188625692787821,-1.7924934080948152
1270,13,4098,1,70,0.7299919849597232,1.188625692787821
1271,13,2352,1,71,-0.4165922846105215,0.27135827713162525
1272,13,3917,-1,72,-1.5631765541807663,0.042041423217576444
1273,13,3000,1,73,-1.5631765541807663,-0.1872754306964727
1274,13,1635,1,74,1.4179425467018703,-0.1872754306964727
1275,13,1775,-1,75,-0.6459091385245703,1.4179425467018703
1276,13,2295,1,76,0.27135827713162525,-1.5631765541807663
1277,13,3827,1,77,1.4179425467018703,0.27135827713162525
1278,13,2962,1,78,-0.6459091385245703,0.042041423217576444
1279,13,1977,-1,79,0.042041423217576444,-0.4165922846105215
1280,13,3624,-1,80,0.5006751310456744,-1.5631765541807663
1281,13,2872,1,81,1.188625692787821,1.876576254529968
1282,13,1663,1,82,0.7299919849597232,-1.1045428463526683
1283,13,2138,1,83,1.4179425467018703,-1.7924934080948152
1284,13,3166,1,84,0.7299919849597232,-1.1045428463526683
1285,13,2659,-1,85,-0.4165922846105215,0.27135827713162525
1286,13,1862,1,86,0.7299919849597232,0.27135827713162525
1287,13,2777,1,87,-0.8752259924386195,-1.7924934080948152
1288,13,4617,1,88,1.4179425467018703,0.959308838873772
1289,13,3374,-1,89,0.5006751310456744,0.27135827713162525
1290,13,2568,-1,90,-0.6459091385245703,-0.1872754306964727
1291,13,2761,1,91,-0.1872754306964727,-2.0218102620088643
1292,13,3259,1,92,0.27135827713162525,0.959308838873772
1293,13,2754,-1,93,0.7299919849597232,0.5006751310456744
1294,13,2407,-1,94,-1.5631765541807663,0.27135827713162525
1295,13,4312,1,95,-0.6459091385245703,-0.8752259924386195
1296,13,3624,-1,96,-0.4165922846105215,0.959308838873772
1297,13,3939,-1,97,-1.7924934080948152,-0.4165922846105215
1298,13,2407,1,98,-1.1045428463526683,-0.8752259924386195
1299,13,1780,-1,99,-1.7924934080948152,1.188625692787821
1300,13,2525,-1,100,0.7299919849597232,0.7299919849597232
1301,13,1833,-1,101,0.042041423217576444,1.188625692787821
1302,13,3869,-1,102,1.188625692787821,0.7299919849597232
1303,13,1386,-1,103,-1.3338597002667172,0.5006751310456744
1304,13,2312,1,104,0.5006751310456744,1.4179425467018703
1305,13,2880,1,105,1.4179425467018703,-0.6459091385245703
1306,13,2177,1,106,-0.4165922846105215,0.042041423217576444
1307,13,3649,1,107,0.042041423217576444,0.27135827713162525
1308,13,1952,1,108,0.7299919849597232,-0.1872754306964727
1309,13,3193,1,109,-0.8752259924386195,0.959308838873772
1310,13,2475,-1,110,-1.5631765541807663,0.7299919849597232
1311,13,2149,1,111,0.27135827713162525,0.27135827713162525
1312,13,1594,-1,112,-1.1045428463526683,-0.8752259924386195
1313,13,2011,1,113,-0.8752259924386195,0.5006751310456744
1314,13,1903,1,114,0.27135827713162525,-1.5631765541807663
1315,13,2093,-1,115,0.27135827713162525,-0.4165922846105215
1316,13,1776,1,116,0.5006751310456744,0.042041423217576444
1317,13,2006,1,117,0.7299919849597232,1.4179425467018703
1318,13,3972,1,118,0.27135827713162525,-0.6459091385245703
1319,13,2425,-1,119,1.876576254529968,-0.1872754306964727
1320,14,1693,-1,0,-0.6490899458744398,-0.1388882416936559
1321,14,3529,-1,1,0.6264143145775178,1.6468177229390843
1322,14,3619,1,2,-0.13888824169365666,-0.1388882416936559
1323,14,4619,-1,3,0.6264143145775178,-0.1388882416936559
1324,14,2557,-1,4,-0.3939890937840484,-0.649089945874439
1325,14,2870,1,5,0.6264143145775178,-0.3939890937840476
1326,14,2978,1,6,-0.4790227111475121,0.11621261039673546
1327,14,4036,1,7,-0.3939890937840484,-0.649089945874439
1328,14,2904,1,8,-0.3939890937840484,-1.1592916500552222
1329,14,4174,-1,9,0.37131346248712604,1.391716870848693
1330,14,3539,1,10,1.136616018758301,-0.1388882416936559
1331,14,1795,1,11,-0.13888824169365666,0.11621261039673546
1332,14,5726,-1,12,2.4121202792102583,2.6672211313006504
1333,14,5765,-1,13,-0.3939890937840484,-0.1388882416936559
1334,14,1930,-1,14,-0.6490899458744398,2.6672211313006504
1335,14,3574,1,15,2.4121202792102583,-0.1388882416936559
1336,14,2206,1,16,0.6264143145775178,0.11621261039673546
1337,14,1649,1,17,-0.3939890937840484,0.3713134624871268
1338,14,5114,-1,18,-0.13888824169365666,-0.3939890937840476
1339,14,2477,-1,19,-0.3939890937840484,-0.1388882416936559
1340,14,1941,-1,20,-0.6490899458744398,-0.649089945874439
1341,14,2183,1,21,-0.6490899458744398,-1.1592916500552222
1342,14,2862,-1,22,-0.6490899458744398,-1.1592916500552222
1343,14,3906,-1,23,-0.4790227111475121,-0.3939890937840476
1344,14,2611,-1,24,-0.9041907979648313,-0.1388882416936559
1345,14,3938,-1,25,-0.6490899458744398,1.1366160187583016
1346,14,1922,-1,26,-1.4143925021456145,0.6264143145775186
1347,14,2064,-1,27,-1.1592916500552228,-0.649089945874439
1348,14,1826,1,28,-0.3939890937840484,-1.1592916500552222
1349,14,1756,1,29,-0.13888824169365666,-1.1592916500552222
1350,14,3119,1,30,1.3917168708486922,-0.649089945874439
1351,14,1499,1,31,-0.9041907979648313,-1.4143925021456136
1352,14,2139,1,32,-0.13888824169365666,-1.1592916500552222
1353,14,4705,-1,33,-0.3939890937840484,2.412120279210259
1354,14,8860,1,34,0.6264143145775178,-0.9041907979648306
1355,14,4205,1,35,-0.9041907979648313,-0.649089945874439
1356,14,2712,1,36,1.3917168708486922,-0.3939890937840476
1357,14,2958,1,37,-0.6490899458744398,-0.649089945874439
1358,14,2525,-1,38,-0.3939890937840484,2.412120279210259
1359,14,1843,1,39,1.6468177229390837,-0.649089945874439
1360,14,3632,-1,40,-0.13888824169365666,2.412120279210259
1361,14,6941,1,41,-0.13888824169365666,-0.649089945874439
1362,14,2011,1,42,-0.3939890937840484,-1.1592916500552222
1363,14,1769,1,43,-0.6490899458744398,-1.4143925021456136
1364,14,2308,-1,44,-0.9041907979648313,0.6264143145775186
1365,14,3892,1,45,-0.3939890937840484,-0.1388882416936559
1366,14,2113,1,46,0.8815151666679092,-0.649089945874439
1367,14,2016,-1,47,-0.6490899458744398,1.6468177229390843
1368,14,4951,-1,48,1.136616018758301,1.391716870848693
1369,14,1684,-1,49,0.11621261039673471,0.6264143145775186
1370,14,2001,-1,50,-0.6490899458744398,1.391716870848693
1371,14,1248,-1,51,-0.6490899458744398,-0.9041907979648306
1372,14,5374,-1,52,-0.13888824169365666,1.6468177229390843
1373,14,1743,-1,53,-1.1592916500552228,-0.1388882416936559
1374,14,1945,1,54,-0.13888824169365666,-0.9041907979648306
1375,14,1487,-1,55,-1.4143925021456145,-0.9041907979648306
1376,14,2217,-1,56,-0.3939890937840484,-0.3939890937840476
1377,14,4695,-1,57,0.6264143145775178,1.391716870848693
1378,14,2110,1,58,1.6468177229390837,-0.3939890937840476
1379,14,2154,-1,59,-0.6490899458744398,-0.3939890937840476
1380,14,1943,1,60,0.6264143145775178,-1.1592916500552222
1381,14,2061,-1,61,-1.1592916500552228,-0.649089945874439
1382,14,1499,1,62,0.6264143145775178,-1.4143925021456136
1383,14,2608,-1,63,-0.3939890937840484,-0.3939890937840476
1384,14,1623,1,64,-0.3939890937840484,-0.4790227111475114
1385,14,2166,-1,65,-0.3939890937840484,1.391716870848693
1386,14,1357,-1,66,-1.1592916500552228,-0.3939890937840476
1387,14,1993,1,67,-0.6490899458744398,-1.1592916500552222
1388,14,4362,1,68,-0.13888824169365666,-0.649089945874439
1389,14,5219,1,69,-0.13888824169365666,0.6264143145775186
1390,14,3413,-1,70,0.11621261039673471,-0.3939890937840476
1391,14,1948,-1,71,-1.4143925021456145,2.412120279210259
1392,14,2161,-1,72,-0.13888824169365666,2.412120279210259
1393,14,3073,1,73,-1.1592916500552228,1.1366160187583016
1394,14,1729,-1,74,-0.13888824169365666,1.1366160187583016
1395,14,1759,-1,75,-0.3939890937840484,0.88151516666791
1396,14,1803,1,76,1.3917168708486922,-0.649089945874439
1397,14,1900,1,77,1.6468177229390837,0.6264143145775186
1398,14,3305,1,78,-0.6490899458744398,-0.1388882416936559
1399,14,1989,1,79,-0.13888824169365666,-0.649089945874439
1400,14,2344,1,80,0.8815151666679092,-0.3939890937840476
1401,14,1725,1,81,-0.3939890937840484,-0.649089945874439
1402,14,1856,-1,82,-0.3939890937840484,1.6468177229390843
1403,14,3411,-1,83,1.6468177229390837,-0.1388882416936559
1404,14,2067,1,84,-0.3939890937840484,0.11621261039673546
1405,14,2129,-1,85,-0.13888824169365666,-0.1388882416936559
1406,14,1049,-1,86,-1.1592916500552228,0.6264143145775186
1407,14,2041,1,87,-0.13888824169365666,-0.3939890937840476
1408,14,1292,-1,88,0.37131346248712604,-0.3939890937840476
1409,14,2487,-1,89,1.3917168708486922,1.1366160187583016
1410,14,1552,-1,90,-0.13888824169365666,-0.649089945874439
1411,14,1845,-1,91,-0.6490899458744398,-0.1388882416936559
1412,14,3187,1,92,0.11621261039673471,-0.1388882416936559
1413,14,3557,-1,93,-0.6490899458744398,1.391716870848693
1414,14,2602,-1,94,-0.6490899458744398,-0.3939890937840476
1415,14,1066,-1,95,-0.6490899458744398,-0.1388882416936559
1416,14,1805,1,96,-1.1592916500552228,-0.649089945874439
1417,14,3007,-1,97,2.66722113130065,-0.649089945874439
1418,14,2244,-1,98,2.66722113130065,2.412120279210259
1419,14,1962,1,99,2.4121202792102583,-1.4143925021456136
1420,14,2514,-1,100,-0.6490899458744398,-0.3939890937840476
1421,14,2807,1,101,-0.3939890937840484,-0.3939890937840476
1422,14,1584,-1,102,-1.4143925021456145,-0.649089945874439
1423,14,2683,1,103,2.4121202792102583,-0.1388882416936559
1424,14,2122,1,104,-1.1592916500552228,-0.1388882416936559
1425,14,2227,-1,105,2.4121202792102583,-0.3939890937840476
1426,14,2900,-1,106,-0.3939890937840484,0.6264143145775186
1427,14,2616,1,107,1.3917168708486922,0.3713134624871268
1428,14,2494,-1,108,-0.6490899458744398,-0.649089945874439
1429,14,1692,1,109,2.4121202792102583,-0.3939890937840476
1430,14,3233,-1,110,1.136616018758301,-1.1592916500552222
1431,14,2537,1,111,1.136616018758301,-0.649089945874439
1432,14,2545,-1,112,-0.6490899458744398,-0.649089945874439
1433,14,1535,-1,113,-1.1592916500552228,-0.3939890937840476
1434,14,2267,1,114,-0.13888824169365666,-0.3939890937840476
1435,14,1963,-1,115,-0.6490899458744398,0.88151516666791
1436,14,1907,1,116,-0.3939890937840484,-0.3939890937840476
1437,14,1731,1,117,1.3917168708486922,0.6264143145775186
1438,14,3364,-1,118,0.11621261039673471,-0.4790227111475114
1439,14,2139,-1,119,-1.1592916500552228,-0.3939890937840476
1440,15,5231,-1,0,-0.2772630590085985,2.574585547937003
1441,15,4462,-1,1,-0.6337441348767988,0.07921801685960239
1442,15,3251,-1,2,-0.2772630590085985,-0.27726305900859755
1443,15,2989,1,3,-0.6337441348767988,-0.6337441348767979
1444,15,1436,-1,4,0.7921801685960015,0.7921801685960027
1445,15,2317,-1,5,0.4356990927278011,-0.6337441348767979
1446,15,4848,-1,6,-0.2772630590085985,-0.27726305900859755
1447,15,3389,1,7,-0.2772630590085985,-1.7031873624813982
1448,15,3074,-1,8,-0.9902252107449987,-0.6337441348767979
1449,15,3791,1,9,0.7921801685960015,-0.6337441348767979
1450,15,3028,-1,10,-0.6337441348767988,-0.9902252107449979
1451,15,3044,-1,11,-1.3467062866131987,-0.27726305900859755
1452,15,2738,-1,12,1.8616233962006015,-0.6337441348767979
1453,15,1892,1,13,-0.6337441348767988,0.4356990927278023
1454,15,1817,1,14,-0.9902252107449987,0.7921801685960027
1455,15,1916,1,15,-0.2772630590085985,-1.346706286613198
1456,15,1676,-1,16,0.7921801685960015,-0.9902252107449979
1457,15,2460,1,17,4.238163901988601,0.7921801685960027
1458,15,2758,1,18,-0.2772630590085985,0.7921801685960027
1459,15,1924,-1,19,-1.703187362481399,-0.6337441348767979
1460,15,3399,1,20,0.7921801685960015,0.07921801685960239
1461,15,2055,1,21,-0.6337441348767988,-0.27726305900859755
1462,15,2383,-1,22,-0.2772630590085985,-0.6337441348767979
1463,15,2015,1,23,-0.2772630590085985,-0.9902252107449979
1464,15,3407,1,24,-0.6337441348767988,-0.6337441348767979
1465,15,2199,1,25,0.07921801685960131,-0.6337441348767979
1466,15,3073,-1,26,0.07921801685960131,0.07921801685960239
1467,15,2721,-1,27,-0.6337441348767988,4.238163901988604
1468,15,2562,-1,28,-0.2772630590085985,1.861623396200603
1469,15,2099,-1,29,0.07921801685960131,-0.27726305900859755
1470,15,2332,1,30,-0.2772630590085985,-0.6337441348767979
1471,15,3103,-1,31,0.4356990927278011,-0.27726305900859755
1472,15,3074,1,32,1.8616233962006015,-0.27726305900859755
1473,15,3804,-1,33,0.4356990927278011,1.861623396200603
1474,15,1685,-1,34,-0.6337441348767988,-0.27726305900859755
1475,15,747,-1,35,-0.2772630590085985,0.4356990927278023
1476,15,4899,-1,36,0.07921801685960131,-0.9902252107449979
1477,15,3078,-1,37,-0.6337441348767988,-0.27726305900859755
1478,15,4006,1,38,-0.2772630590085985,-0.27726305900859755
1479,15,4284,-1,39,0.07921801685960131,-0.27726305900859755
1480,15,4664,1,40,-0.6337441348767988,-0.27726305900859755
1481,15,2502,1,41,-0.2772630590085985,-0.6337441348767979
1482,15,4981,-1,42,-0.2772630590085985,1.861623396200603
1483,15,1723,1,43,-0.9902252107449987,-0.27726305900859755
1484,15,2724,-1,44,-0.6337441348767988,-0.9902252107449979
1485,15,2253,1,45,0.4356990927278011,0.07921801685960239
1486,15,1817,-1,46,-0.2772630590085985,0.4356990927278023
1487,15,1894,1,47,1.8616233962006015,2.574585547937003
1488,15,2026,1,48,-0.2772630590085985,-0.27726305900859755
1489,15,5165,1,49,-0.2772630590085985,-0.27726305900859755
1490,15,4468,-1,50,0.07921801685960131,-0.27726305900859755
1491,15,2687,-1,51,0.4356990927278011,-0.27726305900859755
1492,15,1845,1,52,-1.703187362481399,-0.27726305900859755
1493,15,5522,1,53,-0.6337441348767988,-0.6337441348767979
1494,15,4278,-1,54,-0.2772630590085985,-0.27726305900859755
1495,15,2623,-1,55,-0.6337441348767988,-0.27726305900859755
1496,15,2588,1,56,1.8616233962006015,-0.9902252107449979
1497,15,2581,1,57,-0.2772630590085985,-0.27726305900859755
1498,15,1601,-1,58,0.7921801685960015,0.7921801685960027
1499,15,2664,-1,59,0.07921801685960131,-0.27726305900859755
1500,15,3320,1,60,-0.2772630590085985,0.07921801685960239
1501,15,2356,1,61,1.8616233962006015,-0.27726305900859755
1502,15,3163,-1,62,0.07921801685960131,-0.6337441348767979
1503,15,2523,-1,63,0.7921801685960015,-0.9902252107449979
1504,15,1712,-1,64,-0.6337441348767988,0.4356990927278023
1505,15,3851,-1,65,0.4356990927278011,-0.9902252107449979
1506,15,3017,-1,66,-0.6337441348767988,-0.6337441348767979
1507,15,11705,-1,67,-0.2772630590085985,-0.27726305900859755
1508,15,1701,-1,68,-1.3467062866131987,-0.27726305900859755
1509,15,4700,-1,69,-0.9902252107449987,0.7921801685960027
1510,15,2951,1,70,-0.2772630590085985,-0.6337441348767979
1511,15,3977,-1,71,0.07921801685960131,0.7921801685960027
1512,15,4255,1,72,-0.6337441348767988,1.505142320332403
1513,15,2853,1,73,1.5051423203324017,-0.27726305900859755
1514,15,3495,1,74,-0.6337441348767988,0.07921801685960239
1515,15,2910,1,75,2.574585547937001,-0.27726305900859755
1516,15,2451,1,76,-0.2772630590085985,0.07921801685960239
1517,15,1703,1,77,-0.6337441348767988,-0.27726305900859755
1518,15,1608,1,78,-0.9902252107449987,0.07921801685960239
1519,15,1497,-1,79,-0.2772630590085985,-0.9902252107449979
1520,15,3094,-1,80,-0.2772630590085985,-0.6337441348767979
1521,15,3902,-1,81,-0.2772630590085985,-0.27726305900859755
1522,15,1409,-1,82,0.4356990927278011,-0.6337441348767979
1523,15,1559,1,83,-0.6337441348767988,0.7921801685960027
1524,15,1477,-1,84,-0.2772630590085985,1.505142320332403
1525,15,3069,1,85,0.07921801685960131,-0.6337441348767979
1526,15,2134,1,86,-0.2772630590085985,0.07921801685960239
1527,15,2817,-1,87,-0.2772630590085985,1.861623396200603
1528,15,2134,1,88,0.07921801685960131,0.07921801685960239
1529,15,1617,1,89,-0.6337441348767988,-1.7031873624813982
1530,15,1461,-1,90,1.8616233962006015,-0.27726305900859755
1531,15,2339,1,91,0.4356990927278011,-0.6337441348767979
1532,15,5991,-1,92,-0.2772630590085985,-0.27726305900859755
1533,15,2199,1,93,-0.2772630590085985,-0.9902252107449979
1534,15,2462,1,94,0.7921801685960015,4.238163901988604
1535,15,1067,-1,95,2.574585547937001,1.861623396200603
1536,15,10287,-1,96,-0.2772630590085985,1.861623396200603
1537,15,1925,1,97,-0.9902252107449987,-0.6337441348767979
1538,15,1135,-1,98,1.8616233962006015,-0.27726305900859755
1539,15,3665,-1,99,-0.2772630590085985,-0.6337441348767979
1540,15,3337,-1,100,-0.9902252107449987,-0.27726305900859755
1541,15,1621,1,101,-0.2772630590085985,0.07921801685960239
1542,15,4467,-1,102,-0.2772630590085985,-0.27726305900859755
1543,15,1513,-1,103,-0.6337441348767988,-0.27726305900859755
1544,15,2373,1,104,0.07921801685960131,0.4356990927278023
1545,15,1853,1,105,-0.2772630590085985,-0.6337441348767979
1546,15,1472,1,106,-0.6337441348767988,0.4356990927278023
1547,15,6250,1,107,1.5051423203324017,-0.6337441348767979
1548,15,2147,1,108,0.7921801685960015,-0.27726305900859755
1549,15,2173,1,109,-0.2772630590085985,-0.27726305900859755
1550,15,1871,-1,110,-0.6337441348767988,1.861623396200603
1551,15,2146,-1,111,-0.9902252107449987,-0.27726305900859755
1552,15,3778,-1,112,-0.9902252107449987,0.4356990927278023
1553,15,1974,1,113,4.238163901988601,-0.6337441348767979
1554,15,1914,1,114,-0.2772630590085985,-0.27726305900859755
1555,15,3997,1,115,-0.2772630590085985,-1.346706286613198
1556,15,1766,1,116,1.8616233962006015,0.4356990927278023
1557,15,11609,-1,117,-0.9902252107449987,1.861623396200603
1558,15,1188,-1,118,-0.2772630590085985,-0.27726305900859755
1559,15,1682,1,119,-0.6337441348767988,0.07921801685960239
1560,16,2075,1,0,0.9230284919516956,-1.1066676683609356
1561,16,7535,1,1,0.9230284919516956,-0.23679788536980795
1562,16,4586,-1,2,0.3431153032909436,0.9230284919516958
1563,16,8661,-1,3,1.2129850862820712,1.7928982749428233
1564,16,3957,-1,4,-0.8167110740305602,1.2129850862820715
1565,16,9202,-1,5,-1.2033198664710616,0.6330718976213197
1566,16,2922,1,6,-1.2033198664710616,-1.7832330551318125
1567,16,5625,1,7,0.6330718976213193,-0.5267544797001836
1568,16,4227,1,8,1.2129850862820712,-1.6865808570216874
1569,16,2575,-1,9,-1.1066676683609362,1.2129850862820715
1570,16,1625,-1,10,-2.0731896494621895,-0.5267544797001836
1571,16,2323,1,11,-0.8167110740305602,-1.1066676683609356
1572,16,2629,1,12,1.2129850862820712,-0.23679788536980795
1573,16,5584,-1,13,0.6330718976213193,0.3431153032909439
1574,16,1722,-1,14,-1.1066676683609362,0.3431153032909439
1575,16,4294,-1,15,-0.5267544797001842,0.05315870896056821
1576,16,3248,1,16,0.6330718976213193,-0.8167110740305595
1577,16,16464,-1,17,1.5029416806124476,0.9230284919516958
1578,16,2965,1,18,-0.23679788536980842,-0.23679788536980795
1579,16,11012,-1,19,1.2129850862820712,0.6330718976213197
1580,16,2685,1,20,-0.8167110740305602,-1.3966242626913115
1581,16,2143,-1,21,-1.3966242626913121,0.6330718976213197
1582,16,3143,1,22,1.2129850862820712,0.3431153032909439
1583,16,6030,-1,23,-0.5267544797001842,-0.23679788536980795
1584,16,8023,1,24,-1.1066676683609362,1.2129850862820715
1585,16,4240,1,25,1.7928982749428233,-0.23679788536980795
1586,16,10859,1,26,0.6330718976213193,-0.8167110740305595
1587,16,3170,1,27,0.9230284919516956,-0.5267544797001836
1588,16,8323,-1,28,0.6330718976213193,0.6330718976213197
1589,16,2384,1,29,-0.5267544797001842,-0.8167110740305595
1590,16,5240,1,30,0.9230284919516956,0.05315870896056821
1591,16,3112,-1,31,0.3431153032909436,-0.8167110740305595
1592,16,1838,1,32,-0.5267544797001842,-1.1066676683609356
1593,16,1973,1,33,0.9230284919516956,-0.23679788536980795
1594,16,1872,1,34,-0.23679788536980842,-1.3966242626913115
1595,16,1676,-1,35,-0.8167110740305602,1.2129850862820715
1596,16,9760,1,36,-0.5267544797001842,1.2129850862820715
1597,16,2523,-1,37,-1.6865808570216883,-0.23679788536980795
1598,16,5853,1,38,-0.5267544797001842,-0.5267544797001836
1599,16,9577,-1,39,1.2129850862820712,1.7928982749428233
1600,16,5493,1,40,0.9230284919516956,1.2129850862820715
1601,16,1823,-1,41,-1.7832330551318134,1.2129850862820715
1602,16,1629,-1,42,-1.3966242626913121,1.2129850862820715
1603,16,1205,1,43,-0.8167110740305602,-1.6865808570216874
1604,16,2014,1,44,1.7928982749428233,1.2129850862820715
1605,16,3254,-1,45,-0.8167110740305602,0.3431153032909439
1606,16,1280,-1,46,-0.8167110740305602,-0.5267544797001836
1607,16,1452,-1,47,0.3431153032909436,1.2129850862820715
1608,16,1188,-1,48,-1.3966242626913121,-0.23679788536980795
1609,16,1774,-1,49,-1.3966242626913121,-0.8167110740305595
1610,16,1562,-1,50,-1.6865808570216883,1.2129850862820715
1611,16,2817,1,51,0.05315870896056779,-0.23679788536980795
1612,16,1970,-1,52,0.9230284919516956,1.2129850862820715
1613,16,2120,-1,53,-0.23679788536980842,0.9230284919516958
1614,16,7061,-1,54,0.3431153032909436,0.6330718976213197
1615,16,1895,1,55,1.2129850862820712,-0.8167110740305595
1616,16,2393,-1,56,-0.23679788536980842,1.5029416806124476
1617,16,2211,1,57,-0.23679788536980842,-0.8167110740305595
1618,16,2508,-1,58,-1.7832330551318134,-1.203319866471061
1619,16,2824,-1,59,0.05315870896056779,0.9230284919516958
1620,16,1679,1,60,-1.1066676683609362,-0.23679788536980795
1621,16,1131,1,61,0.3431153032909436,-1.1066676683609356
1622,16,2595,1,62,1.2129850862820712,0.05315870896056821
1623,16,3503,-1,63,1.2129850862820712,-0.5267544797001836
1624,16,1536,-1,64,-1.6865808570216883,1.2129850862820715
1625,16,2417,1,65,0.05315870896056779,-0.5267544797001836
1626,16,2395,-1,66,-0.23679788536980842,1.2129850862820715
1627,16,1125,1,67,0.6330718976213193,-1.3966242626913115
1628,16,2151,1,68,-0.8167110740305602,0.3431153032909439
1629,16,1352,-1,69,-2.0731896494621895,0.9230284919516958
1630,16,8065,1,70,0.6330718976213193,0.6330718976213197
1631,16,2867,1,71,-0.8167110740305602,-0.23679788536980795
1632,16,8247,1,72,-0.5267544797001842,0.6330718976213197
1633,16,2116,-1,73,-1.1066676683609362,-1.1066676683609356
1634,16,1469,1,74,1.2129850862820712,-0.8167110740305595
1635,16,1653,-1,75,-1.1066676683609362,-0.5267544797001836
1636,16,1432,1,76,1.2129850862820712,-1.1066676683609356
1637,16,3820,-1,77,1.2129850862820712,0.9230284919516958
1638,16,9054,1,78,0.3431153032909436,-1.1066676683609356
1639,16,4429,1,79,1.7928982749428233,-0.23679788536980795
1640,16,2832,-1,80,-0.23679788536980842,1.7928982749428233
1641,16,3220,1,81,0.9230284919516956,0.3431153032909439
1642,16,1810,1,82,1.2129850862820712,-1.7832330551318125
1643,16,1595,-1,83,-1.6865808570216883,-0.8167110740305595
1644,16,1619,-1,84,1.2129850862820712,0.9230284919516958
1645,16,1387,1,85,-1.1066676683609362,-1.1066676683609356
1646,16,2547,1,86,1.2129850862820712,-1.3966242626913115
1647,16,5361,1,87,0.9230284919516956,-0.23679788536980795
1648,16,2328,1,88,-0.23679788536980842,-1.6865808570216874
1649,16,2485,-1,89,1.2129850862820712,-1.1066676683609356
1650,16,3548,1,90,1.7928982749428233,1.2129850862820715
1651,16,1978,-1,91,-0.8167110740305602,0.6330718976213197
1652,16,1167,-1,92,-0.23679788536980842,0.9230284919516958
1653,16,1476,-1,93,-0.23679788536980842,-1.1066676683609356
1654,16,1537,-1,94,-1.1066676683609362,0.3431153032909439
1655,16,1131,-1,95,-0.23679788536980842,-0.23679788536980795
1656,16,2759,1,96,0.6330718976213193,0.3431153032909439
1657,16,2331,1,97,0.6330718976213193,-1.203319866471061
1658,16,1456,1,98,-0.5267544797001842,-2.0731896494621886
1659,16,1325,-1,99,-0.23679788536980842,0.05315870896056821
1660,16,2046,-1,100,-0.5267544797001842,-0.5267544797001836
1661,16,2027,-1,101,-0.23679788536980842,-0.8167110740305595
1662,16,2086,1,102,0.3431153032909436,0.6330718976213197
1663,16,1395,1,103,0.9230284919516956,-2.0731896494621886
1664,16,4194,-1,104,0.9230284919516956,1.5029416806124476
1665,16,1504,-1,105,-0.23679788536980842,1.7928982749428233
1666,16,2114,1,106,1.2129850862820712,0.9230284919516958
1667,16,7989,-1,107,0.6330718976213193,1.2129850862820715
1668,16,1435,-1,108,-0.5267544797001842,0.9230284919516958
1669,16,2070,-1,109,-0.23679788536980842,0.9230284919516958
1670,16,6107,-1,110,0.05315870896056779,1.2129850862820715
1671,16,3078,-1,111,-0.8167110740305602,0.6330718976213197
1672,16,6019,1,112,-0.23679788536980842,-0.5267544797001836
1673,16,1448,-1,113,-1.1066676683609362,0.9230284919516958
1674,16,1003,-1,114,-1.1066676683609362,-0.8167110740305595
1675,16,3646,1,115,-0.8167110740305602,-0.23679788536980795
1676,16,2271,1,116,1.5029416806124476,-0.23679788536980795
1677,16,4375,1,117,0.9230284919516956,1.2129850862820715
1678,16,2502,1,118,0.3431153032909436,-0.8167110740305595
1679,16,1612,1,119,1.2129850862820712,-1.6865808570216874
1680,18,4454,1,0,1.9076833849229742,-0.5144055560312242
1681,18,4352,-1,1,-0.9296208030519441,0.3160249380102157
1682,18,11312,1,2,0.9388478085412946,1.907683384922975
1683,18,2681,1,3,0.523632561520575,0.5236325615205755
1684,18,4703,-1,4,-0.7220131795415841,0.7312401850309354
1685,18,3569,-1,5,-0.7220131795415841,-0.09919030901050421
1686,18,2993,-1,6,-2.2444690852842233,-0.9296208030519441
1687,18,6628,-1,7,1.146455432051655,1.3540630555620154
1688,18,6188,1,8,0.10841731449985526,0.1084173144998556
1689,18,2743,1,9,0.523632561520575,-0.5144055560312242
1690,18,3464,1,10,0.10841731449985526,0.5236325615205755
1691,18,4531,1,11,1.3540630555620146,-0.09919030901050421
1692,18,3179,1,12,-0.3067979325208645,-2.2444690852842237
1693,18,6067,-1,13,0.10841731449985526,0.9388478085412951
1694,18,2480,1,14,0.10841731449985526,-2.2444690852842237
1695,18,5211,1,15,0.523632561520575,0.1084173144998556
1696,18,3212,1,16,0.10841731449985526,-1.1372284265623038
1697,18,6119,-1,17,0.3160249380102153,0.7312401850309354
1698,18,4090,-1,18,-2.2444690852842233,-1.760051297093384
1699,18,2879,-1,19,-2.2444690852842233,0.3160249380102157
1700,18,3324,-1,20,-0.09919030901050449,0.9388478085412951
1701,18,2039,1,21,0.7312401850309348,-0.9296208030519441
1702,18,2871,1,22,0.3160249380102153,0.5236325615205755
1703,18,2022,-1,23,-0.9296208030519441,0.5236325615205755
1704,18,3007,-1,24,-0.09919030901050449,-0.9296208030519441
1705,18,3320,1,25,0.3160249380102153,-0.722013179541584
1706,18,3913,-1,26,0.523632561520575,1.907683384922975
1707,18,6028,-1,27,-0.7220131795415841,-0.5144055560312242
1708,18,6379,-1,28,0.7312401850309348,0.1084173144998556
1709,18,6732,1,29,0.3160249380102153,0.3160249380102157
1710,18,2985,1,30,1.146455432051655,0.7312401850309354
1711,18,4737,1,31,0.9388478085412946,0.1084173144998556
1712,18,2744,1,32,0.523632561520575,-0.9296208030519441
1713,18,2859,1,33,0.3160249380102153,0.1084173144998556
1714,18,3178,-1,34,-2.2444690852842233,0.1084173144998556
1715,18,1511,-1,35,-2.2444690852842233,1.1464554320516556
1716,18,2823,-1,36,-1.1372284265623038,0.7312401850309354
1717,18,4818,1,37,0.523632561520575,0.7312401850309354
1718,18,4708,1,38,1.146455432051655,0.9388478085412951
1719,18,1936,-1,39,-2.2444690852842233,1.1464554320516556
1720,18,2170,1,40,0.3160249380102153,-0.5144055560312242
1721,18,1736,1,41,0.9388478085412946,0.3160249380102157
1722,18,2153,1,42,-0.09919030901050449,1.3540630555620154
1723,18,4170,1,43,-0.5144055560312243,-0.722013179541584
1724,18,2457,1,44,0.523632561520575,-0.30679793252086435
1725,18,3468,1,45,-0.9296208030519441,-0.722013179541584
1726,18,2333,1,46,0.10841731449985526,-0.9296208030519441
1727,18,8094,-1,47,0.7312401850309348,0.5236325615205755
1728,18,2941,1,48,0.523632561520575,-0.722013179541584
1729,18,1930,-1,49,-2.2444690852842233,0.5236325615205755
1730,18,4255,-1,50,-0.5144055560312243,0.1084173144998556
1731,18,1913,1,51,1.146455432051655,-2.2444690852842237
1732,18,2146,-1,52,-2.2444690852842233,0.1084173144998556
1733,18,2866,1,53,1.146455432051655,-0.722013179541584
1734,18,2970,1,54,0.7312401850309348,-0.09919030901050421
1735,18,2564,-1,55,-0.7220131795415841,0.3160249380102157
1736,18,4977,-1,56,0.3160249380102153,0.3160249380102157
1737,18,3595,-1,57,0.523632561520575,0.7312401850309354
1738,18,2714,-1,58,0.10841731449985526,0.9388478085412951
1739,18,4681,1,59,-0.5144055560312243,0.5236325615205755
1740,18,1816,-1,60,-2.2444690852842233,-0.30679793252086435
1741,18,4904,1,61,0.523632561520575,0.7312401850309354
1742,18,1497,-1,62,-1.1372284265623038,0.1084173144998556
1743,18,2145,-1,63,-1.7600512970933833,0.7312401850309354
1744,18,2733,1,64,1.9076833849229742,0.1084173144998556
1745,18,2456,-1,65,-2.2444690852842233,0.3160249380102157
1746,18,3759,1,66,0.7312401850309348,0.3160249380102157
1747,18,2258,-1,67,-0.9296208030519441,0.7312401850309354
1748,18,2855,1,68,1.146455432051655,0.5236325615205755
1749,18,1396,1,69,1.146455432051655,-0.9296208030519441
1750,18,1838,1,70,0.10841731449985526,-2.2444690852842237
1751,18,2858,-1,71,0.3160249380102153,0.7312401850309354
1752,18,4266,1,72,0.9388478085412946,0.1084173144998556
1753,18,3289,1,73,0.3160249380102153,-0.9296208030519441
1754,18,3512,1,74,1.9076833849229742,0.5236325615205755
1755,18,2041,-1,75,-0.5144055560312243,1.907683384922975
1756,18,2834,1,76,-0.9296208030519441,-0.09919030901050421
1757,18,7334,1,77,-0.09919030901050449,-0.9296208030519441
1758,18,1898,-1,78,0.10841731449985526,0.3160249380102157
1759,18,3118,-1,79,0.523632561520575,0.5236325615205755
