parcode,trial,rt,choice,item_left,item_right
0,0,3260,1,0,0
0,1,4860,1,0,0
0,2,3130,1,0,0
0,3,630,1,0,0
0,4,7170,1,0,0
0,5,1130,-1,0,0
0,6,7910,1,0,0
0,7,750,1,0,0
0,8,640,1,0,0
0,9,3260,-1,0,0
0,10,1140,1,0,0
0,11,750,1,0,0
0,12,7500,-1,0,0
0,13,2390,-1,0,0
0,14,770,1,0,0
0,15,5410,-1,0,0
0,16,2100,-1,0,0
0,17,2110,-1,0,0
0,18,650,1,0,0
0,19,3990,1,0,0
0,20,1220,1,0,0
0,21,9210,1,0,0
0,22,11830,1,0,0
0,23,300,-1,0,0
0,24,1080,-1,0,0
0,25,790,1,0,0
0,26,1890,-1,0,0
0,27,1890,1,0,0
0,28,3270,1,0,0
0,29,4220,-1,0,0
0,30,2090,-1,0,0
0,31,1360,1,0,0
0,32,2210,1,0,0
0,33,6290,1,0,0
0,34,830,-1,0,0
0,35,1050,1,0,0
0,36,840,1,0,0
0,37,14710,1,0,0
0,38,2690,-1,0,0
0,39,6960,-1,0,0
0,40,3130,-1,0,0
0,41,1890,1,0,0
0,42,7420,1,0,0
0,43,1090,1,0,0
0,44,1100,-1,0,0
0,45,1360,1,0,0
0,46,2920,1,0,0
0,47,840,-1,0,0
0,48,3500,1,0,0
0,49,3090,1,0,0
0,50,3180,1,0,0
0,51,1770,-1,0,0
0,52,1180,-1,0,0
0,53,3700,1,0,0
0,54,8730,1,0,0
0,55,3550,1,0,0
0,56,1730,-1,0,0
0,57,600,1,0,0
0,58,1430,1,0,0
0,59,550,-1,0,0
0,60,1430,-1,0,0
0,61,1100,1,0,0
0,62,2870,1,0,0
0,63,2510,1,0,0
0,64,4180,1,0,0
0,65,4520,-1,0,0
0,66,7180,1,0,0
0,67,3200,-1,0,0
0,68,1890,-1,0,0
0,69,1460,1,0,0
0,70,12580,-1,0,0
0,71,1610,1,0,0
0,72,750,1,0,0
0,73,1540,-1,0,0
0,74,3120,-1,0,0
0,75,1500,-1,0,0
0,76,860,1,0,0
0,77,2410,1,0,0
0,78,1720,-1,0,0
0,79,1130,1,0,0
0,80,2380,-1,0,0
0,81,2090,1,0,0
0,82,1370,-1,0,0
0,83,780,-1,0,0
0,84,8380,1,0,0
0,85,790,1,0,0
0,86,2720,-1,0,0
0,87,4320,-1,0,0
0,88,2760,1,0,0
0,89,4310,1,0,0
0,90,550,-1,0,0
0,91,600,1,0,0
0,92,1430,-1,0,0
0,93,2740,-1,0,0
0,94,1590,-1,0,0
0,95,2320,-1,0,0
0,96,2400,1,0,0
0,97,2470,1,0,0
0,98,14610,-1,0,0
0,99,960,1,0,0
0,100,11410,1,0,0
0,101,1430,1,0,0
0,102,2810,-1,0,0
0,103,3770,1,0,0
0,104,6700,1,0,0
0,105,2720,-1,0,0
0,106,910,-1,0,0
0,107,860,1,0,0
0,108,5880,1,0,0
0,109,2630,1,0,0
0,110,4520,1,0,0
0,111,2960,-1,0,0
0,112,3780,-1,0,0
0,113,2020,1,0,0
0,114,4980,1,0,0
0,115,2400,1,0,0
0,116,13520,-1,0,0
0,117,1170,-1,0,0
0,118,4620,-1,0,0
0,119,5500,1,0,0
0,120,3180,1,0,0
0,121,3970,-1,0,0
0,122,6690,-1,0,0
0,123,4260,1,0,0
0,124,750,1,0,0
0,125,2650,-1,0,0
0,126,4050,-1,0,0
0,127,3560,1,0,0
0,128,7000,-1,0,0
0,129,1180,-1,0,0
0,130,4220,1,0,0
0,131,3090,1,0,0
0,132,2950,1,0,0
0,133,4560,-1,0,0
0,134,6780,-1,0,0
0,135,6630,-1,0,0
0,136,3460,-1,0,0
0,137,510,1,0,0
0,138,4720,1,0,0
0,139,1770,1,0,0
0,140,6750,-1,0,0
0,141,3720,1,0,0
0,142,1920,-1,0,0
0,143,4560,1,0,0
0,144,1590,1,0,0
0,145,3630,-1,0,0
0,146,2310,-1,0,0
0,147,3280,-1,0,0
0,148,1710,-1,0,0
0,149,3630,-1,0,0
0,150,2620,1,0,0
0,151,1220,-1,0,0
0,152,4730,1,0,0
0,153,4190,1,0,0
0,154,1390,1,0,0
0,155,1020,1,0,0
0,156,3290,-1,0,0
0,157,940,-1,0,0
0,158,1720,-1,0,0
0,159,860,1,0,0
0,160,4870,-1,0,0
0,161,800,-1,0,0
0,162,1020,-1,0,0
0,163,3000,-1,0,0
0,164,690,-1,0,0
0,165,1430,1,0,0
0,166,4190,1,0,0
0,167,2140,-1,0,0
0,168,680,1,0,0
0,169,2410,1,0,0
0,170,1600,-1,0,0
0,171,4720,-1,0,0
0,172,6440,1,0,0
0,173,1860,-1,0,0
0,174,5450,-1,0,0
0,175,1630,-1,0,0
0,176,4110,1,0,0
0,177,3180,1,0,0
0,178,820,-1,0,0
0,179,660,-1,0,0
0,180,1050,1,0,0
0,181,1270,-1,0,0
0,182,2240,-1,0,0
0,183,2500,1,0,0
0,184,2080,1,0,0
0,185,4890,-1,0,0
0,186,890,-1,0,0
0,187,10330,1,0,0
0,188,5100,-1,0,0
0,189,1620,1,0,0
0,190,870,1,0,0
0,191,5670,1,0,0
0,192,1330,1,0,0
0,193,880,1,0,0
0,194,2090,1,0,0
0,195,670,1,0,0
0,196,1450,1,0,0
0,197,11700,-1,0,0
0,198,3820,-1,0,0
0,199,2150,-1,0,0
0,200,2760,-1,0,0
0,201,1130,-1,0,0
0,202,4650,-1,0,0
0,203,3860,-1,0,0
0,204,1900,1,0,0
0,205,570,1,0,0
0,206,1650,-1,0,0
0,207,1180,-1,0,0
0,208,7380,-1,0,0
0,209,2120,1,0,0
0,210,1230,-1,0,0
0,211,1600,1,0,0
0,212,380,1,0,0
0,213,4310,1,0,0
0,214,1330,-1,0,0
0,215,6020,-1,0,0
0,216,6870,1,0,0
0,217,1920,1,0,0
0,218,2370,1,0,0
0,219,1130,1,0,0
0,220,1720,1,0,0
0,221,3700,-1,0,0
0,222,6600,1,0,0
0,223,3440,1,0,0
0,224,3550,1,0,0
0,225,2300,1,0,0
0,226,1220,1,0,0
0,227,1500,-1,0,0
0,228,2980,1,0,0
0,229,2100,-1,0,0
0,230,1420,1,0,0
0,231,2290,1,0,0
0,232,1600,-1,0,0
0,233,1170,1,0,0
0,234,3400,-1,0,0
0,235,910,-1,0,0
0,236,3880,-1,0,0
0,237,3020,-1,0,0
0,238,2380,1,0,0
0,239,4220,-1,0,0
0,240,2300,1,0,0
0,241,9260,1,0,0
0,242,580,-1,0,0
0,243,1690,1,0,0
0,244,1530,-1,0,0
0,245,1490,1,0,0
0,246,920,1,0,0
0,247,1220,1,0,0
0,248,6440,1,0,0
0,249,2190,1,0,0
0,250,1100,-1,0,0
0,251,2360,-1,0,0
0,252,1880,-1,0,0
0,253,680,-1,0,0
0,254,4080,-1,0,0
0,255,2020,-1,0,0
0,256,3400,1,0,0
0,257,1280,-1,0,0
0,258,2440,-1,0,0
0,259,700,-1,0,0
0,260,980,-1,0,0
0,261,3140,-1,0,0
0,262,6640,-1,0,0
0,263,1220,1,0,0
0,264,800,-1,0,0
0,265,930,1,0,0
0,266,3730,1,0,0
0,267,3400,1,0,0
0,268,7080,1,0,0
0,269,2370,-1,0,0
0,270,1820,-1,0,0
0,271,2390,-1,0,0
0,272,470,1,0,0
0,273,2690,1,0,0
0,274,670,1,0,0
0,275,4020,-1,0,0
0,276,870,-1,0,0
0,277,4520,-1,0,0
0,278,2800,-1,0,0
0,279,4550,1,0,0
0,280,2610,1,0,0
0,281,1430,1,0,0
0,282,1770,1,0,0
0,283,1650,1,0,0
0,284,9310,-1,0,0
0,285,1940,1,0,0
0,286,4580,-1,0,0
0,287,1810,1,0,0
0,288,4910,-1,0,0
0,289,680,1,0,0
0,290,3520,1,0,0
0,291,4070,-1,0,0
0,292,1230,1,0,0
0,293,3840,1,0,0
0,294,2500,-1,0,0
0,295,1180,-1,0,0
0,296,770,1,0,0
0,297,1340,1,0,0
0,298,7440,-1,0,0
0,299,2970,1,0,0
0,300,1370,1,0,1
0,301,1830,1,0,1
0,302,1050,-1,0,1
0,303,1480,1,0,1
0,304,12500,1,0,1
0,305,1910,1,0,1
0,306,2600,1,0,1
0,307,3800,1,0,1
0,308,2280,1,0,1
0,309,2320,-1,0,1
0,310,10720,1,0,1
0,311,9630,1,0,1
0,312,1440,1,0,1
0,313,2520,1,0,1
0,314,1490,1,0,1
0,315,3780,-1,0,1
0,316,1040,-1,0,1
0,317,4230,1,0,1
0,318,1710,1,0,1
0,319,680,-1,0,1
0,320,1040,1,0,1
0,321,3340,1,0,1
0,322,8380,-1,0,1
0,323,870,-1,0,1
0,324,2400,1,0,1
0,325,990,-1,0,1
0,326,7310,1,0,1
0,327,7340,1,0,1
0,328,1500,-1,0,1
0,329,2520,1,0,1
0,330,1050,1,0,1
0,331,540,1,0,1
0,332,1980,-1,0,1
0,333,890,-1,0,1
0,334,1330,-1,0,1
0,335,13620,1,0,1
0,336,1970,-1,0,1
0,337,2000,-1,0,1
0,338,1630,1,0,1
0,339,2490,1,0,1
0,340,2660,-1,0,1
0,341,1180,-1,0,1
0,342,1510,-1,0,1
0,343,2120,-1,0,1
0,344,790,1,0,1
0,345,2890,1,0,1
0,346,1140,-1,0,1
0,347,2700,-1,0,1
0,348,6150,1,0,1
0,349,3290,1,0,1
0,350,2670,-1,0,1
0,351,1000,1,0,1
0,352,3240,1,0,1
0,353,950,1,0,1
0,354,2200,-1,0,1
0,355,1570,1,0,1
0,356,3160,-1,0,1
0,357,610,-1,0,1
0,358,570,1,0,1
0,359,3340,-1,0,1
0,360,1320,1,0,1
0,361,820,1,0,1
0,362,2270,-1,0,1
0,363,2480,1,0,1
0,364,8090,1,0,1
0,365,1620,-1,0,1
0,366,1180,-1,0,1
0,367,3800,-1,0,1
0,368,5710,-1,0,1
0,369,1220,1,0,1
0,370,460,-1,0,1
0,371,1220,-1,0,1
0,372,1050,-1,0,1
0,373,810,1,0,1
0,374,1550,1,0,1
0,375,5720,-1,0,1
0,376,2900,1,0,1
0,377,830,1,0,1
0,378,2410,-1,0,1
0,379,830,-1,0,1
0,380,1870,1,0,1
0,381,4120,1,0,1
0,382,1980,1,0,1
0,383,720,-1,0,1
0,384,800,-1,0,1
0,385,3100,-1,0,1
0,386,2180,1,0,1
0,387,3310,1,0,1
0,388,4520,1,0,1
0,389,3020,-1,0,1
0,390,5720,1,0,1
0,391,1440,1,0,1
0,392,2750,-1,0,1
0,393,7050,1,0,1
0,394,2630,-1,0,1
0,395,8450,-1,0,1
0,396,6980,-1,0,1
0,397,3510,1,0,1
0,398,3290,1,0,1
0,399,7260,1,0,1
0,400,2360,-1,0,1
0,401,960,1,0,1
0,402,1320,-1,0,1
0,403,680,-1,0,1
0,404,1580,-1,0,1
0,405,1860,-1,0,1
0,406,4620,1,0,1
0,407,4290,-1,0,1
0,408,960,-1,0,1
0,409,6380,-1,0,1
0,410,1920,1,0,1
0,411,3280,1,0,1
0,412,740,-1,0,1
0,413,1090,1,0,1
0,414,1410,1,0,1
0,415,2570,-1,0,1
0,416,850,-1,0,1
0,417,2550,-1,0,1
0,418,1570,-1,0,1
0,419,1880,-1,0,1
0,420,1760,1,0,1
0,421,320,1,0,1
0,422,4630,-1,0,1
0,423,2780,1,0,1
0,424,790,1,0,1
0,425,850,1,0,1
0,426,620,-1,0,1
0,427,2850,-1,0,1
0,428,2020,1,0,1
0,429,1100,1,0,1
0,430,1850,1,0,1
0,431,1420,1,0,1
0,432,2290,-1,0,1
0,433,1420,1,0,1
0,434,3300,1,0,1
0,435,3880,1,0,1
0,436,4860,1,0,1
0,437,1960,1,0,1
0,438,3350,-1,0,1
0,439,2200,-1,0,1
0,440,4520,1,0,1
0,441,770,-1,0,1
0,442,1350,-1,0,1
0,443,1400,-1,0,1
0,444,1510,1,0,1
0,445,1240,-1,0,1
0,446,730,-1,0,1
0,447,1910,-1,0,1
0,448,1160,1,0,1
0,449,3460,1,0,1
0,450,3020,-1,0,1
0,451,4390,1,0,1
0,452,11810,1,0,1
0,453,2300,-1,0,1
0,454,660,1,0,1
0,455,840,1,0,1
0,456,4200,1,0,1
0,457,4670,-1,0,1
0,458,1560,-1,0,1
0,459,10180,-1,0,1
0,460,1450,-1,0,1
0,461,4050,-1,0,1
0,462,3790,-1,0,1
0,463,540,1,0,1
0,464,1070,1,0,1
0,465,10320,-1,0,1
0,466,1500,1,0,1
0,467,2010,-1,0,1
0,468,770,1,0,1
0,469,2150,-1,0,1
0,470,2130,1,0,1
0,471,2170,1,0,1
0,472,660,1,0,1
0,473,1240,-1,0,1
0,474,3680,1,0,1
0,475,1070,1,0,1
0,476,2360,-1,0,1
0,477,1610,1,0,1
0,478,2460,1,0,1
0,479,3400,1,0,1
0,480,1010,-1,0,1
0,481,1520,1,0,1
0,482,1730,1,0,1
0,483,1360,1,0,1
0,484,5080,1,0,1
0,485,3290,1,0,1
0,486,4450,1,0,1
0,487,3190,-1,0,1
0,488,2540,-1,0,1
0,489,2220,1,0,1
0,490,4780,1,0,1
0,491,1440,-1,0,1
0,492,3550,1,0,1
0,493,2170,1,0,1
0,494,5170,-1,0,1
0,495,2250,-1,0,1
0,496,4200,-1,0,1
0,497,1960,1,0,1
0,498,1700,1,0,1
0,499,1090,-1,0,1
0,500,800,1,0,1
0,501,1170,1,0,1
0,502,3690,-1,0,1
0,503,850,1,0,1
0,504,7150,-1,0,1
0,505,650,-1,0,1
0,506,2050,1,0,1
0,507,2710,1,0,1
0,508,2870,-1,0,1
0,509,4360,1,0,1
0,510,2020,1,0,1
0,511,1960,-1,0,1
0,512,2190,1,0,1
0,513,1600,1,0,1
0,514,2910,-1,0,1
0,515,6770,1,0,1
0,516,5370,-1,0,1
0,517,2820,-1,0,1
0,518,1980,-1,0,1
0,519,2560,-1,0,1
0,520,5180,-1,0,1
0,521,2010,-1,0,1
0,522,1140,1,0,1
0,523,2880,-1,0,1
0,524,1100,1,0,1
0,525,6240,1,0,1
0,526,3440,1,0,1
0,527,1830,-1,0,1
0,528,5590,-1,0,1
0,529,12200,-1,0,1
0,530,3950,1,0,1
0,531,1310,1,0,1
0,532,1240,1,0,1
0,533,330,-1,0,1
0,534,1230,1,0,1
0,535,1140,1,0,1
0,536,3300,1,0,1
0,537,3660,-1,0,1
0,538,4480,-1,0,1
0,539,1230,-1,0,1
0,540,1320,1,0,1
0,541,4680,1,0,1
0,542,1060,1,0,1
0,543,810,-1,0,1
0,544,2650,1,0,1
0,545,1940,1,0,1
0,546,630,1,0,1
0,547,4830,-1,0,1
0,548,550,1,0,1
0,549,600,-1,0,1
0,550,2980,-1,0,1
0,551,4650,1,0,1
0,552,2550,1,0,1
0,553,10740,-1,0,1
0,554,4180,1,0,1
0,555,1140,1,0,1
0,556,2310,1,0,1
0,557,4200,1,0,1
0,558,6830,1,0,1
0,559,4500,-1,0,1
0,560,3790,1,0,1
0,561,1820,1,0,1
0,562,730,1,0,1
0,563,2240,1,0,1
0,564,2960,-1,0,1
0,565,4260,-1,0,1
0,566,1160,1,0,1
0,567,1410,1,0,1
0,568,5910,1,0,1
0,569,5480,1,0,1
0,570,790,1,0,1
0,571,1740,1,0,1
0,572,2150,1,0,1
0,573,5530,-1,0,1
0,574,640,-1,0,1
0,575,1890,-1,0,1
0,576,5260,1,0,1
0,577,2440,1,0,1
0,578,5500,1,0,1
0,579,1260,-1,0,1
0,580,670,1,0,1
0,581,3110,1,0,1
0,582,2770,1,0,1
0,583,2070,1,0,1
0,584,1340,1,0,1
0,585,920,1,0,1
0,586,5170,1,0,1
0,587,3710,1,0,1
0,588,1170,-1,0,1
0,589,5080,-1,0,1
0,590,8970,-1,0,1
0,591,1230,1,0,1
0,592,2460,1,0,1
0,593,1870,1,0,1
0,594,5410,1,0,1
0,595,2160,1,0,1
0,596,1100,1,0,1
0,597,2790,1,0,1
0,598,3100,1,0,1
0,599,1240,-1,0,1
0,600,1370,1,0,1
0,601,2770,1,0,1
0,602,2140,1,0,1
0,603,330,1,0,1
0,604,4850,-1,0,1
0,605,2750,1,0,1
0,606,4220,-1,0,1
0,607,3140,1,0,1
0,608,5600,-1,0,1
0,609,560,1,0,1
0,610,2740,1,0,1
0,611,800,1,0,1
0,612,2110,-1,0,1
0,613,3690,1,0,1
0,614,1600,-1,0,1
0,615,4020,-1,0,1
0,616,1960,-1,0,1
0,617,1000,1,0,1
0,618,570,-1,0,1
0,619,14170,-1,0,1
0,620,4300,-1,0,1
0,621,3380,1,0,1
0,622,840,-1,0,1
0,623,1240,1,0,1
0,624,1830,-1,0,1
0,625,4300,-1,0,1
0,626,1150,-1,0,1
0,627,1350,-1,0,1
0,628,10720,-1,0,1
0,629,490,1,0,1
0,630,1720,1,0,1
0,631,3630,-1,0,1
0,632,1930,1,0,1
0,633,1970,-1,0,1
0,634,5320,-1,0,1
0,635,3450,-1,0,1
0,636,9150,-1,0,1
0,637,2690,1,0,1
0,638,6400,-1,0,1
0,639,1070,-1,0,1
0,640,1230,-1,0,1
0,641,7680,1,0,1
0,642,810,1,0,1
0,643,1060,1,0,1
0,644,2960,1,0,1
0,645,2470,1,0,1
0,646,5720,1,0,1
0,647,2250,-1,0,1
0,648,9260,-1,0,1
0,649,7400,1,0,1
0,650,1270,1,0,1
0,651,1570,-1,0,1
0,652,280,-1,0,1
0,653,9620,1,0,1
0,654,3560,-1,0,1
0,655,5120,1,0,1
0,656,3320,1,0,1
0,657,1910,1,0,1
0,658,6470,-1,0,1
0,659,1970,1,0,1
0,660,2130,-1,0,1
0,661,11160,1,0,1
0,662,2370,1,0,1
0,663,3540,1,0,1
0,664,3010,-1,0,1
0,665,1150,1,0,1
0,666,2930,1,0,1
0,667,6960,1,0,1
0,668,1370,1,0,1
0,669,11640,1,0,1
0,670,4490,-1,0,1
0,671,800,1,0,1
0,672,1120,1,0,1
0,673,1490,-1,0,1
0,674,2670,-1,0,1
0,675,1710,1,0,1
0,676,2530,1,0,1
0,677,1990,-1,0,1
0,678,400,1,0,1
0,679,4470,-1,0,1
0,680,560,-1,0,1
0,681,1940,1,0,1
0,682,1060,-1,0,1
0,683,4670,-1,0,1
0,684,9260,1,0,1
0,685,2190,1,0,1
0,686,1000,1,0,1
0,687,6730,1,0,1
0,688,12120,1,0,1
0,689,1430,-1,0,1
0,690,2960,1,0,1
0,691,1020,1,0,1
0,692,4100,1,0,1
0,693,2050,-1,0,1
0,694,1300,-1,0,1
0,695,8690,-1,0,1
0,696,2580,1,0,1
0,697,970,-1,0,1
0,698,3640,1,0,1
0,699,6420,-1,0,1
0,700,5210,-1,0,1
0,701,1690,1,0,1
0,702,810,-1,0,1
0,703,3270,1,0,1
0,704,2420,-1,0,1
0,705,1970,-1,0,1
0,706,1470,-1,0,1
0,707,5020,1,0,1
0,708,560,1,0,1
0,709,850,1,0,1
0,710,520,1,0,1
0,711,12920,-1,0,1
0,712,4640,-1,0,1
0,713,1660,1,0,1
0,714,6010,-1,0,1
0,715,4520,1,0,1
0,716,1600,-1,0,1
0,717,3900,1,0,1
0,718,1020,1,0,1
0,719,1000,1,0,1
0,720,3100,1,0,1
0,721,2450,-1,0,1
0,722,2240,-1,0,1
0,723,2390,1,0,1
0,724,1730,1,0,1
0,725,4540,-1,0,1
0,726,1590,-1,0,1
0,727,1090,-1,0,1
0,728,4010,1,0,1
0,729,5810,-1,0,1
0,730,4650,1,0,1
0,731,560,-1,0,1
0,732,3690,1,0,1
0,733,1460,1,0,1
0,734,7450,1,0,1
0,735,1800,1,0,1
0,736,790,1,0,1
0,737,1250,-1,0,1
0,738,2240,-1,0,1
0,739,8660,-1,0,1
0,740,2110,-1,0,1
0,741,1510,1,0,1
0,742,5100,1,0,1
0,743,2100,1,0,1
0,744,2340,1,0,1
0,745,1160,1,0,1
0,746,4650,-1,0,1
0,747,3190,1,0,1
0,748,930,-1,0,1
0,749,4560,-1,0,1
0,750,1520,-1,0,1
0,751,7350,-1,0,1
0,752,6770,1,0,1
0,753,4650,-1,0,1
0,754,1930,-1,0,1
0,755,440,1,0,1
0,756,960,-1,0,1
0,757,1230,-1,0,1
0,758,1210,-1,0,1
0,759,1150,1,0,1
0,760,2080,1,0,1
0,761,1610,1,0,1
0,762,820,-1,0,1
0,763,1130,-1,0,1
0,764,1570,-1,0,1
0,765,4660,1,0,1
0,766,1320,1,0,1
0,767,900,-1,0,1
0,768,820,-1,0,1
0,769,600,1,0,1
0,770,1430,1,0,1
0,771,2030,1,0,1
0,772,1640,1,0,1
0,773,1180,-1,0,1
0,774,470,-1,0,1
0,775,6170,1,0,1
0,776,1130,-1,0,1
0,777,1350,-1,0,1
0,778,1780,1,0,1
0,779,990,1,0,1
0,780,1460,-1,0,1
0,781,5170,1,0,1
0,782,5630,-1,0,1
0,783,1260,1,0,1
0,784,3430,-1,0,1
0,785,9900,-1,0,1
0,786,650,-1,0,1
0,787,2520,1,0,1
0,788,5130,1,0,1
0,789,7450,1,0,1
0,790,7500,-1,0,1
0,791,870,1,0,1
0,792,1240,-1,0,1
0,793,10020,-1,0,1
0,794,550,-1,0,1
0,795,10740,-1,0,1
0,796,1870,1,0,1
0,797,710,1,0,1
0,798,290,1,0,1
0,799,1300,1,0,1
0,800,2060,-1,0,1
0,801,4450,1,0,1
0,802,1100,1,0,1
0,803,4610,-1,0,1
0,804,500,1,0,1
0,805,9550,-1,0,1
0,806,7120,-1,0,1
0,807,3990,1,0,1
0,808,660,-1,0,1
0,809,8830,-1,0,1
0,810,370,1,0,1
0,811,1300,1,0,1
0,812,1450,-1,0,1
0,813,2110,1,0,1
0,814,2640,1,0,1
0,815,4850,-1,0,1
0,816,3030,1,0,1
0,817,2090,-1,0,1
0,818,4980,1,0,1
0,819,4060,1,0,1
0,820,4330,1,0,1
0,821,5600,-1,0,1
0,822,1240,1,0,1
0,823,930,-1,0,1
0,824,5790,-1,0,1
0,825,2920,-1,0,1
0,826,540,1,0,1
0,827,3350,-1,0,1
0,828,1500,1,0,1
0,829,1780,1,0,1
0,830,7460,-1,0,1
0,831,1130,-1,0,1
0,832,2160,1,0,1
0,833,2950,1,0,1
0,834,1390,-1,0,1
0,835,5870,1,0,1
0,836,2400,1,0,1
0,837,6260,-1,0,1
0,838,710,1,0,1
0,839,1480,1,0,1
0,840,1040,1,0,1
0,841,1350,-1,0,1
0,842,480,1,0,1
0,843,5440,1,0,1
0,844,770,1,0,1
0,845,8510,1,0,1
0,846,10250,1,0,1
0,847,2190,1,0,1
0,848,770,1,0,1
0,849,2840,1,0,1
0,850,1270,1,0,1
0,851,1940,1,0,1
0,852,1220,-1,0,1
0,853,630,-1,0,1
0,854,5910,1,0,1
0,855,3390,1,0,1
0,856,1060,-1,0,1
0,857,5380,1,0,1
0,858,280,1,0,1
0,859,3460,1,0,1
0,860,740,-1,0,1
0,861,2150,-1,0,1
0,862,650,-1,0,1
0,863,3880,-1,0,1
0,864,5040,1,0,1
0,865,9210,1,0,1
0,866,730,-1,0,1
0,867,2400,1,0,1
0,868,1620,-1,0,1
0,869,1390,1,0,1
0,870,7840,-1,0,1
0,871,1890,1,0,1
0,872,340,-1,0,1
0,873,3270,1,0,1
0,874,4000,1,0,1
0,875,4100,1,0,1
0,876,1570,-1,0,1
0,877,6300,1,0,1
0,878,12130,1,0,1
0,879,3620,1,0,1
0,880,8210,1,0,1
0,881,740,1,0,1
0,882,610,-1,0,1
0,883,4260,1,0,1
0,884,3200,1,0,1
0,885,9570,1,0,1
0,886,1220,1,0,1
0,887,6030,1,0,1
0,888,2550,1,0,1
0,889,1980,-1,0,1
0,890,4730,1,0,1
0,891,1260,1,0,1
0,892,2970,-1,0,1
0,893,1630,1,0,1
0,894,2410,1,0,1
0,895,2930,1,0,1
0,896,1670,1,0,1
0,897,9070,1,0,1
0,898,1450,1,0,1
0,899,6380,-1,0,1
0,900,3140,-1,0,2
0,901,900,1,0,2
0,902,1400,1,0,2
0,903,1160,-1,0,2
0,904,1100,-1,0,2
0,905,890,1,0,2
0,906,1510,1,0,2
0,907,2140,-1,0,2
0,908,700,1,0,2
0,909,1330,-1,0,2
0,910,2370,1,0,2
0,911,1140,1,0,2
0,912,1490,1,0,2
0,913,2120,1,0,2
0,914,2380,-1,0,2
0,915,8350,1,0,2
0,916,5000,-1,0,2
0,917,450,1,0,2
0,918,18470,-1,0,2
0,919,4720,-1,0,2
0,920,1550,-1,0,2
0,921,1610,1,0,2
0,922,9800,-1,0,2
0,923,5240,1,0,2
0,924,3110,1,0,2
0,925,1730,-1,0,2
0,926,2770,1,0,2
0,927,4140,1,0,2
0,928,2770,1,0,2
0,929,1660,-1,0,2
0,930,2340,1,0,2
0,931,630,-1,0,2
0,932,6800,1,0,2
0,933,3030,-1,0,2
0,934,2010,1,0,2
0,935,1920,1,0,2
0,936,3350,-1,0,2
0,937,4240,1,0,2
0,938,890,1,0,2
0,939,4630,-1,0,2
0,940,3590,1,0,2
0,941,1390,1,0,2
0,942,3920,1,0,2
0,943,1640,1,0,2
0,944,270,-1,0,2
0,945,13170,1,0,2
0,946,3470,1,0,2
0,947,2410,1,0,2
0,948,1990,1,0,2
0,949,2520,1,0,2
0,950,3280,1,0,2
0,951,2790,1,0,2
0,952,600,1,0,2
0,953,2280,1,0,2
0,954,3630,1,0,2
0,955,5440,1,0,2
0,956,2150,-1,0,2
0,957,3120,-1,0,2
0,958,3210,1,0,2
0,959,2050,1,0,2
0,960,2610,-1,0,2
0,961,860,-1,0,2
0,962,2820,-1,0,2
0,963,2080,1,0,2
0,964,6350,-1,0,2
0,965,4580,-1,0,2
0,966,3660,1,0,2
0,967,1480,1,0,2
0,968,4480,1,0,2
0,969,3590,1,0,2
0,970,610,1,0,2
0,971,650,-1,0,2
0,972,1480,1,0,2
0,973,1310,1,0,2
0,974,10940,1,0,2
0,975,2210,1,0,2
0,976,4000,1,0,2
0,977,5660,1,0,2
0,978,7270,1,0,2
0,979,3340,1,0,2
0,980,2090,1,0,2
0,981,2590,-1,0,2
0,982,1970,-1,0,2
0,983,1640,-1,0,2
0,984,740,1,0,2
0,985,1810,-1,0,2
0,986,4830,-1,0,2
0,987,1140,1,0,2
0,988,1160,1,0,2
0,989,590,-1,0,2
0,990,3190,1,0,2
0,991,2880,-1,0,2
0,992,1970,1,0,2
0,993,6810,1,0,2
0,994,1920,1,0,2
0,995,940,1,0,2
0,996,9380,1,0,2
0,997,4360,1,0,2
0,998,1460,1,0,2
0,999,2130,1,0,2
0,1000,920,1,0,2
0,1001,1610,1,0,2
0,1002,1360,1,0,2
0,1003,890,1,0,2
0,1004,5920,1,0,2
0,1005,1540,1,0,2
0,1006,470,-1,0,2
0,1007,2260,1,0,2
0,1008,1790,-1,0,2
0,1009,1690,1,0,2
0,1010,3450,-1,0,2
0,1011,4740,1,0,2
0,1012,2390,-1,0,2
0,1013,2540,1,0,2
0,1014,970,1,0,2
0,1015,3720,1,0,2
0,1016,1580,1,0,2
0,1017,4040,-1,0,2
0,1018,10300,1,0,2
0,1019,530,-1,0,2
0,1020,1530,1,0,2
0,1021,10970,1,0,2
0,1022,1500,1,0,2
0,1023,2280,1,0,2
0,1024,9680,-1,0,2
0,1025,1440,1,0,2
0,1026,4080,1,0,2
0,1027,1550,-1,0,2
0,1028,3040,1,0,2
0,1029,3460,-1,0,2
0,1030,3310,1,0,2
0,1031,1080,1,0,2
0,1032,4940,1,0,2
0,1033,6870,-1,0,2
0,1034,9700,-1,0,2
0,1035,3800,1,0,2
0,1036,630,1,0,2
0,1037,2730,-1,0,2
0,1038,4260,1,0,2
0,1039,4850,1,0,2
0,1040,5980,1,0,2
0,1041,1600,1,0,2
0,1042,1930,1,0,2
0,1043,4600,-1,0,2
0,1044,4370,1,0,2
0,1045,2700,-1,0,2
0,1046,3770,1,0,2
0,1047,650,1,0,2
0,1048,7060,1,0,2
0,1049,5300,1,0,2
0,1050,5130,1,0,2
0,1051,2370,1,0,2
0,1052,2060,1,0,2
0,1053,1850,1,0,2
0,1054,2750,-1,0,2
0,1055,4810,1,0,2
0,1056,6820,-1,0,2
0,1057,2540,-1,0,2
0,1058,4820,1,0,2
0,1059,2290,1,0,2
0,1060,710,1,0,2
0,1061,6920,1,0,2
0,1062,1770,-1,0,2
0,1063,3350,1,0,2
0,1064,4650,1,0,2
0,1065,9580,-1,0,2
0,1066,4110,1,0,2
0,1067,2520,-1,0,2
0,1068,4450,1,0,2
0,1069,1900,-1,0,2
0,1070,550,1,0,2
0,1071,1290,1,0,2
0,1072,4700,1,0,2
0,1073,4890,1,0,2
0,1074,830,-1,0,2
0,1075,470,-1,0,2
0,1076,540,-1,0,2
0,1077,1390,1,0,2
0,1078,680,1,0,2
0,1079,1150,-1,0,2
0,1080,2020,-1,0,2
0,1081,4510,1,0,2
0,1082,3980,-1,0,2
0,1083,4240,1,0,2
0,1084,10320,1,0,2
0,1085,2420,1,0,2
0,1086,3370,1,0,2
0,1087,630,-1,0,2
0,1088,3200,1,0,2
0,1089,1630,-1,0,2
0,1090,6760,-1,0,2
0,1091,1640,1,0,2
0,1092,920,1,0,2
0,1093,540,1,0,2
0,1094,660,1,0,2
0,1095,6350,-1,0,2
0,1096,3240,1,0,2
0,1097,1100,1,0,2
0,1098,4810,-1,0,2
0,1099,2090,-1,0,2
0,1100,4270,1,0,2
0,1101,6700,1,0,2
0,1102,1090,1,0,2
0,1103,730,1,0,2
0,1104,5890,1,0,2
0,1105,1120,1,0,2
0,1106,450,-1,0,2
0,1107,1270,1,0,2
0,1108,4090,1,0,2
0,1109,6530,1,0,2
0,1110,1660,1,0,2
0,1111,3670,1,0,2
0,1112,1030,1,0,2
0,1113,3970,1,0,2
0,1114,2980,-1,0,2
0,1115,2280,1,0,2
0,1116,3360,1,0,2
0,1117,3500,1,0,2
0,1118,1800,1,0,2
0,1119,3890,1,0,2
0,1120,2040,1,0,2
0,1121,4520,1,0,2
0,1122,3450,-1,0,2
0,1123,9470,1,0,2
0,1124,4810,1,0,2
0,1125,3730,1,0,2
0,1126,2340,1,0,2
0,1127,7030,1,0,2
0,1128,1770,1,0,2
0,1129,4620,1,0,2
0,1130,3300,1,0,2
0,1131,4590,-1,0,2
0,1132,3120,1,0,2
0,1133,700,1,0,2
0,1134,4040,-1,0,2
0,1135,1780,1,0,2
0,1136,6360,-1,0,2
0,1137,2150,-1,0,2
0,1138,1810,1,0,2
0,1139,1640,1,0,2
0,1140,520,1,0,2
0,1141,400,1,0,2
0,1142,2030,1,0,2
0,1143,530,1,0,2
0,1144,2430,1,0,2
0,1145,4580,1,0,2
0,1146,1800,1,0,2
0,1147,3900,1,0,2
0,1148,600,1,0,2
0,1149,3770,-1,0,2
0,1150,2020,1,0,2
0,1151,1370,-1,0,2
0,1152,1880,1,0,2
0,1153,1970,1,0,2
0,1154,2710,-1,0,2
0,1155,1410,1,0,2
0,1156,4320,1,0,2
0,1157,1340,1,0,2
0,1158,2200,1,0,2
0,1159,3290,1,0,2
0,1160,3380,1,0,2
0,1161,1990,-1,0,2
0,1162,2710,-1,0,2
0,1163,8670,-1,0,2
0,1164,2800,1,0,2
0,1165,760,-1,0,2
0,1166,750,1,0,2
0,1167,2270,1,0,2
0,1168,1560,1,0,2
0,1169,750,1,0,2
0,1170,1160,-1,0,2
0,1171,830,-1,0,2
0,1172,2320,-1,0,2
0,1173,3720,1,0,2
0,1174,3650,1,0,2
0,1175,4620,-1,0,2
0,1176,1290,1,0,2
0,1177,6500,1,0,2
0,1178,2340,1,0,2
0,1179,4020,1,0,2
0,1180,3000,-1,0,2
0,1181,5280,1,0,2
0,1182,1930,1,0,2
0,1183,3270,1,0,2
0,1184,3230,1,0,2
0,1185,2950,1,0,2
0,1186,3820,1,0,2
0,1187,7750,1,0,2
0,1188,2040,-1,0,2
0,1189,1870,-1,0,2
0,1190,340,-1,0,2
0,1191,660,-1,0,2
0,1192,2940,1,0,2
0,1193,4590,1,0,2
0,1194,2360,1,0,2
0,1195,2310,1,0,2
0,1196,520,-1,0,2
0,1197,1980,1,0,2
0,1198,850,1,0,2
0,1199,1630,1,0,2
0,1200,2560,-1,0,2
0,1201,730,-1,0,2
0,1202,2220,-1,0,2
0,1203,2140,1,0,2
0,1204,4040,-1,0,2
0,1205,2150,1,0,2
0,1206,9730,-1,0,2
0,1207,1490,1,0,2
0,1208,2020,-1,0,2
0,1209,3850,1,0,2
0,1210,2340,1,0,2
0,1211,3500,1,0,2
0,1212,1130,-1,0,2
0,1213,1320,1,0,2
0,1214,2280,1,0,2
0,1215,2190,1,0,2
0,1216,1200,1,0,2
0,1217,1780,1,0,2
0,1218,1310,1,0,2
0,1219,590,1,0,2
0,1220,1550,-1,0,2
0,1221,2380,-1,0,2
0,1222,1070,-1,0,2
0,1223,2800,1,0,2
0,1224,2280,1,0,2
0,1225,1100,1,0,2
0,1226,1220,1,0,2
0,1227,1620,-1,0,2
0,1228,2630,1,0,2
0,1229,300,1,0,2
0,1230,830,-1,0,2
0,1231,2550,1,0,2
0,1232,3740,1,0,2
0,1233,10340,1,0,2
0,1234,930,-1,0,2
0,1235,1440,-1,0,2
0,1236,1180,1,0,2
0,1237,3630,-1,0,2
0,1238,700,1,0,2
0,1239,2440,1,0,2
0,1240,2990,1,0,2
0,1241,3320,1,0,2
0,1242,2740,1,0,2
0,1243,8570,-1,0,2
0,1244,6470,1,0,2
0,1245,1810,1,0,2
0,1246,1600,-1,0,2
0,1247,2360,1,0,2
0,1248,830,1,0,2
0,1249,1710,1,0,2
0,1250,1540,-1,0,2
0,1251,2320,-1,0,2
0,1252,690,1,0,2
0,1253,1780,-1,0,2
0,1254,3370,1,0,2
0,1255,3620,1,0,2
0,1256,3090,1,0,2
0,1257,4390,-1,0,2
0,1258,3910,-1,0,2
0,1259,770,1,0,2
0,1260,4230,-1,0,2
0,1261,4720,-1,0,2
0,1262,2060,1,0,2
0,1263,3170,-1,0,2
0,1264,970,1,0,2
0,1265,530,1,0,2
0,1266,220,-1,0,2
0,1267,4590,-1,0,2
0,1268,1590,-1,0,2
0,1269,1680,-1,0,2
0,1270,7100,1,0,2
0,1271,1440,-1,0,2
0,1272,6690,1,0,2
0,1273,2000,1,0,2
0,1274,6850,1,0,2
0,1275,5040,-1,0,2
0,1276,3060,-1,0,2
0,1277,6260,-1,0,2
0,1278,1910,1,0,2
0,1279,1490,1,0,2
0,1280,2820,-1,0,2
0,1281,4370,1,0,2
0,1282,2550,1,0,2
0,1283,1520,1,0,2
0,1284,4130,-1,0,2
0,1285,5270,-1,0,2
0,1286,1580,1,0,2
0,1287,2900,1,0,2
0,1288,1030,-1,0,2
0,1289,630,1,0,2
0,1290,4120,1,0,2
0,1291,830,1,0,2
0,1292,9260,1,0,2
0,1293,3480,1,0,2
0,1294,7330,1,0,2
0,1295,4790,-1,0,2
0,1296,1750,1,0,2
0,1297,830,1,0,2
0,1298,2610,1,0,2
0,1299,3580,1,0,2
0,1300,4060,-1,0,2
0,1301,2710,1,0,2
0,1302,620,1,0,2
0,1303,1280,-1,0,2
0,1304,8390,1,0,2
0,1305,5150,-1,0,2
0,1306,2530,-1,0,2
0,1307,5810,1,0,2
0,1308,590,1,0,2
0,1309,6450,1,0,2
0,1310,1800,1,0,2
0,1311,3930,-1,0,2
0,1312,1760,1,0,2
0,1313,2130,1,0,2
0,1314,5580,1,0,2
0,1315,710,-1,0,2
0,1316,740,1,0,2
0,1317,2270,1,0,2
0,1318,1030,-1,0,2
0,1319,1090,-1,0,2
0,1320,2810,1,0,2
0,1321,1370,1,0,2
0,1322,1500,1,0,2
0,1323,3230,1,0,2
0,1324,2330,-1,0,2
0,1325,1270,1,0,2
0,1326,2610,1,0,2
0,1327,5080,1,0,2
0,1328,3020,-1,0,2
0,1329,6660,-1,0,2
0,1330,2410,-1,0,2
0,1331,270,1,0,2
0,1332,1040,-1,0,2
0,1333,990,-1,0,2
0,1334,2070,1,0,2
0,1335,2110,1,0,2
0,1336,4550,1,0,2
0,1337,3960,-1,0,2
0,1338,1350,1,0,2
0,1339,8430,-1,0,2
0,1340,7250,1,0,2
0,1341,5470,-1,0,2
0,1342,800,1,0,2
0,1343,1740,1,0,2
0,1344,7580,1,0,2
0,1345,1960,-1,0,2
0,1346,3110,1,0,2
0,1347,3130,1,0,2
0,1348,2920,1,0,2
0,1349,2700,1,0,2
0,1350,680,1,0,2
0,1351,2070,-1,0,2
0,1352,1970,1,0,2
0,1353,510,1,0,2
0,1354,1480,1,0,2
0,1355,5290,-1,0,2
0,1356,1430,1,0,2
0,1357,2270,1,0,2
0,1358,4360,1,0,2
0,1359,1030,1,0,2
0,1360,4590,-1,0,2
0,1361,4850,1,0,2
0,1362,440,-1,0,2
0,1363,3450,-1,0,2
0,1364,1440,1,0,2
0,1365,1760,1,0,2
0,1366,1080,1,0,2
0,1367,2290,1,0,2
0,1368,11600,-1,0,2
0,1369,10460,-1,0,2
0,1370,770,-1,0,2
0,1371,3570,-1,0,2
0,1372,1180,1,0,2
0,1373,8930,1,0,2
0,1374,2500,-1,0,2
0,1375,870,-1,0,2
0,1376,2270,1,0,2
0,1377,7460,1,0,2
0,1378,4210,1,0,2
0,1379,1760,1,0,2
0,1380,2780,1,0,2
0,1381,2690,1,0,2
0,1382,2100,1,0,2
0,1383,3470,-1,0,2
0,1384,440,-1,0,2
0,1385,1660,1,0,2
0,1386,2010,1,0,2
0,1387,5200,-1,0,2
0,1388,2170,1,0,2
0,1389,4310,1,0,2
0,1390,1650,-1,0,2
0,1391,740,-1,0,2
0,1392,2040,1,0,2
0,1393,6190,-1,0,2
0,1394,4450,1,0,2
0,1395,1750,-1,0,2
0,1396,1830,1,0,2
0,1397,1560,-1,0,2
0,1398,2380,1,0,2
0,1399,920,1,0,2
0,1400,3480,1,0,2
0,1401,1410,1,0,2
0,1402,2440,1,0,2
0,1403,940,1,0,2
0,1404,2290,1,0,2
0,1405,5150,1,0,2
0,1406,2730,1,0,2
0,1407,480,1,0,2
0,1408,4050,-1,0,2
0,1409,1350,-1,0,2
0,1410,1450,-1,0,2
0,1411,2750,1,0,2
0,1412,510,-1,0,2
0,1413,1430,1,0,2
0,1414,1220,-1,0,2
0,1415,1760,1,0,2
0,1416,2910,1,0,2
0,1417,1130,-1,0,2
0,1418,5540,1,0,2
0,1419,2430,-1,0,2
0,1420,870,-1,0,2
0,1421,450,-1,0,2
0,1422,1120,1,0,2
0,1423,2650,1,0,2
0,1424,4980,1,0,2
0,1425,2180,1,0,2
0,1426,2210,-1,0,2
0,1427,6310,1,0,2
0,1428,2170,1,0,2
0,1429,3890,1,0,2
0,1430,1330,1,0,2
0,1431,6170,1,0,2
0,1432,1580,1,0,2
0,1433,1400,-1,0,2
0,1434,2090,1,0,2
0,1435,1490,1,0,2
0,1436,2520,-1,0,2
0,1437,790,-1,0,2
0,1438,1540,1,0,2
0,1439,4810,1,0,2
0,1440,1460,1,0,2
0,1441,1160,-1,0,2
0,1442,5260,1,0,2
0,1443,1130,-1,0,2
0,1444,5820,1,0,2
0,1445,1190,1,0,2
0,1446,1380,1,0,2
0,1447,2770,-1,0,2
0,1448,640,1,0,2
0,1449,4950,1,0,2
0,1450,5820,1,0,2
0,1451,5840,1,0,2
0,1452,2760,1,0,2
0,1453,860,1,0,2
0,1454,630,1,0,2
0,1455,6720,1,0,2
0,1456,900,1,0,2
0,1457,1670,-1,0,2
0,1458,5990,-1,0,2
0,1459,2880,-1,0,2
0,1460,2600,1,0,2
0,1461,970,1,0,2
0,1462,2780,1,0,2
0,1463,580,-1,0,2
0,1464,13060,1,0,2
0,1465,1010,1,0,2
0,1466,790,1,0,2
0,1467,1780,1,0,2
0,1468,3480,1,0,2
0,1469,3660,1,0,2
0,1470,570,-1,0,2
0,1471,2610,1,0,2
0,1472,1130,1,0,2
0,1473,2110,1,0,2
0,1474,1670,-1,0,2
0,1475,240,-1,0,2
0,1476,4010,-1,0,2
0,1477,1100,-1,0,2
0,1478,850,1,0,2
0,1479,3250,-1,0,2
0,1480,1130,1,0,2
0,1481,2920,1,0,2
0,1482,2360,-1,0,2
0,1483,1820,-1,0,2
0,1484,2070,1,0,2
0,1485,1290,1,0,2
0,1486,3110,1,0,2
0,1487,480,1,0,2
0,1488,3700,1,0,2
0,1489,1210,1,0,2
0,1490,4530,1,0,2
0,1491,1420,1,0,2
0,1492,5110,1,0,2
0,1493,2230,-1,0,2
0,1494,5090,1,0,2
0,1495,690,1,0,2
0,1496,7820,1,0,2
0,1497,730,-1,0,2
0,1498,3370,1,0,2
0,1499,2220,1,0,2
0,1500,9390,1,0,3
0,1501,1370,1,0,3
0,1502,580,-1,0,3
0,1503,790,-1,0,3
0,1504,1620,1,0,3
0,1505,5090,1,0,3
0,1506,2040,1,0,3
0,1507,3780,1,0,3
0,1508,1370,1,0,3
0,1509,6130,1,0,3
0,1510,2740,1,0,3
0,1511,1730,1,0,3
0,1512,1820,-1,0,3
0,1513,260,-1,0,3
0,1514,2130,1,0,3
0,1515,1040,-1,0,3
0,1516,1630,1,0,3
0,1517,1460,1,0,3
0,1518,2460,1,0,3
0,1519,3750,1,0,3
0,1520,1980,1,0,3
0,1521,1150,1,0,3
0,1522,2930,1,0,3
0,1523,7910,1,0,3
0,1524,3340,1,0,3
0,1525,1080,1,0,3
0,1526,700,-1,0,3
0,1527,920,-1,0,3
0,1528,3180,1,0,3
0,1529,890,-1,0,3
0,1530,1000,1,0,3
0,1531,580,-1,0,3
0,1532,5050,1,0,3
0,1533,6740,1,0,3
0,1534,10990,-1,0,3
0,1535,750,1,0,3
0,1536,720,1,0,3
0,1537,910,-1,0,3
0,1538,3610,1,0,3
0,1539,4810,1,0,3
0,1540,2530,1,0,3
0,1541,1300,1,0,3
0,1542,4230,1,0,3
0,1543,5470,1,0,3
0,1544,1600,-1,0,3
0,1545,1620,1,0,3
0,1546,7330,1,0,3
0,1547,1550,1,0,3
0,1548,980,-1,0,3
0,1549,1370,1,0,3
0,1550,1020,1,0,3
0,1551,800,1,0,3
0,1552,2850,-1,0,3
0,1553,2200,1,0,3
0,1554,990,1,0,3
0,1555,12680,1,0,3
0,1556,4290,1,0,3
0,1557,1710,1,0,3
0,1558,5380,1,0,3
0,1559,1460,1,0,3
0,1560,1250,1,0,3
0,1561,860,-1,0,3
0,1562,7680,1,0,3
0,1563,2670,-1,0,3
0,1564,3740,1,0,3
0,1565,4340,1,0,3
0,1566,3070,-1,0,3
0,1567,940,-1,0,3
0,1568,3900,1,0,3
0,1569,3940,1,0,3
0,1570,3270,1,0,3
0,1571,580,1,0,3
0,1572,2040,1,0,3
0,1573,1940,1,0,3
0,1574,3770,1,0,3
0,1575,4100,1,0,3
0,1576,920,-1,0,3
0,1577,810,-1,0,3
0,1578,4810,-1,0,3
0,1579,7240,1,0,3
0,1580,4090,1,0,3
0,1581,1250,1,0,3
0,1582,4750,1,0,3
0,1583,3160,1,0,3
0,1584,970,-1,0,3
0,1585,2650,1,0,3
0,1586,2960,1,0,3
0,1587,1740,1,0,3
0,1588,1110,-1,0,3
0,1589,3760,1,0,3
0,1590,2670,-1,0,3
0,1591,4450,1,0,3
0,1592,3320,-1,0,3
0,1593,1360,1,0,3
0,1594,5680,1,0,3
0,1595,3630,1,0,3
0,1596,6440,1,0,3
0,1597,3380,1,0,3
0,1598,2440,1,0,3
0,1599,1930,-1,0,3
0,1600,970,-1,0,3
0,1601,3110,1,0,3
0,1602,7380,1,0,3
0,1603,1090,1,0,3
0,1604,2010,1,0,3
0,1605,2050,1,0,3
0,1606,4750,1,0,3
0,1607,980,1,0,3
0,1608,1190,1,0,3
0,1609,2790,1,0,3
0,1610,2150,-1,0,3
0,1611,1820,1,0,3
0,1612,2590,1,0,3
0,1613,2430,1,0,3
0,1614,3670,1,0,3
0,1615,6970,1,0,3
0,1616,4520,-1,0,3
0,1617,2490,1,0,3
0,1618,1390,1,0,3
0,1619,1680,1,0,3
0,1620,1430,1,0,3
0,1621,7420,1,0,3
0,1622,3370,-1,0,3
0,1623,1370,1,0,3
0,1624,1130,1,0,3
0,1625,1120,1,0,3
0,1626,600,1,0,3
0,1627,2550,1,0,3
0,1628,1470,-1,0,3
0,1629,3130,1,0,3
0,1630,3930,-1,0,3
0,1631,1090,1,0,3
0,1632,960,-1,0,3
0,1633,350,1,0,3
0,1634,4870,1,0,3
0,1635,11180,1,0,3
0,1636,620,-1,0,3
0,1637,520,1,0,3
0,1638,1550,1,0,3
0,1639,770,1,0,3
0,1640,4720,1,0,3
0,1641,6020,1,0,3
0,1642,5310,1,0,3
0,1643,3740,1,0,3
0,1644,1570,1,0,3
0,1645,1240,1,0,3
0,1646,1000,1,0,3
0,1647,1930,1,0,3
0,1648,6380,1,0,3
0,1649,1240,1,0,3
0,1650,440,1,0,3
0,1651,6130,1,0,3
0,1652,950,-1,0,3
0,1653,1750,1,0,3
0,1654,1260,-1,0,3
0,1655,3380,1,0,3
0,1656,6290,1,0,3
0,1657,1670,1,0,3
0,1658,2270,1,0,3
0,1659,4760,1,0,3
0,1660,4920,1,0,3
0,1661,1210,1,0,3
0,1662,2340,1,0,3
0,1663,1820,1,0,3
0,1664,6710,-1,0,3
0,1665,2740,-1,0,3
0,1666,2670,1,0,3
0,1667,1210,1,0,3
0,1668,1220,1,0,3
0,1669,7770,1,0,3
0,1670,4950,1,0,3
0,1671,2290,-1,0,3
0,1672,1120,-1,0,3
0,1673,2410,1,0,3
0,1674,990,1,0,3
0,1675,2400,1,0,3
0,1676,2700,1,0,3
0,1677,1000,-1,0,3
0,1678,1740,1,0,3
0,1679,5440,1,0,3
0,1680,1270,-1,0,3
0,1681,1430,1,0,3
0,1682,4490,1,0,3
0,1683,2760,-1,0,3
0,1684,1700,1,0,3
0,1685,2540,1,0,3
0,1686,2460,-1,0,3
0,1687,2450,1,0,3
0,1688,2520,1,0,3
0,1689,3930,1,0,3
0,1690,1550,1,0,3
0,1691,2430,1,0,3
0,1692,950,1,0,3
0,1693,1610,1,0,3
0,1694,2260,-1,0,3
0,1695,2970,-1,0,3
0,1696,600,1,0,3
0,1697,430,-1,0,3
0,1698,1110,1,0,3
0,1699,4610,1,0,3
0,1700,1730,1,0,3
0,1701,2750,-1,0,3
0,1702,7480,1,0,3
0,1703,8830,1,0,3
0,1704,2730,1,0,3
0,1705,5640,1,0,3
0,1706,5520,1,0,3
0,1707,1010,1,0,3
0,1708,1220,1,0,3
0,1709,2720,1,0,3
0,1710,2190,1,0,3
0,1711,1860,1,0,3
0,1712,4460,1,0,3
0,1713,2450,1,0,3
0,1714,5110,1,0,3
0,1715,300,1,0,3
0,1716,2500,1,0,3
0,1717,2150,1,0,3
0,1718,880,-1,0,3
0,1719,1990,1,0,3
0,1720,1240,1,0,3
0,1721,1640,1,0,3
0,1722,2240,1,0,3
0,1723,2000,1,0,3
0,1724,2650,1,0,3
0,1725,3360,1,0,3
0,1726,1600,1,0,3
0,1727,2040,-1,0,3
0,1728,3340,1,0,3
0,1729,820,1,0,3
0,1730,770,1,0,3
0,1731,850,-1,0,3
0,1732,1880,1,0,3
0,1733,6320,-1,0,3
0,1734,3370,1,0,3
0,1735,1670,1,0,3
0,1736,1820,1,0,3
0,1737,3220,1,0,3
0,1738,1610,1,0,3
0,1739,3560,1,0,3
0,1740,2140,1,0,3
0,1741,2550,1,0,3
0,1742,560,-1,0,3
0,1743,2290,1,0,3
0,1744,3560,1,0,3
0,1745,1360,-1,0,3
0,1746,1790,-1,0,3
0,1747,1920,1,0,3
0,1748,2950,-1,0,3
0,1749,1120,-1,0,3
0,1750,5780,1,0,3
0,1751,790,1,0,3
0,1752,7430,1,0,3
0,1753,4250,1,0,3
0,1754,2340,1,0,3
0,1755,970,1,0,3
0,1756,1760,1,0,3
0,1757,4580,1,0,3
0,1758,990,1,0,3
0,1759,5520,1,0,3
0,1760,2290,-1,0,3
0,1761,3140,-1,0,3
0,1762,810,1,0,3
0,1763,2370,-1,0,3
0,1764,1170,-1,0,3
0,1765,790,1,0,3
0,1766,4390,1,0,3
0,1767,1890,1,0,3
0,1768,2610,1,0,3
0,1769,1240,1,0,3
0,1770,3320,-1,0,3
0,1771,2060,1,0,3
0,1772,2560,1,0,3
0,1773,3870,1,0,3
0,1774,390,1,0,3
0,1775,1410,1,0,3
0,1776,4260,1,0,3
0,1777,990,1,0,3
0,1778,5560,1,0,3
0,1779,2470,1,0,3
0,1780,2580,-1,0,3
0,1781,2460,1,0,3
0,1782,3270,1,0,3
0,1783,1150,1,0,3
0,1784,6220,1,0,3
0,1785,3270,1,0,3
0,1786,4130,1,0,3
0,1787,2090,1,0,3
0,1788,3250,1,0,3
0,1789,6010,1,0,3
0,1790,5290,1,0,3
0,1791,980,1,0,3
0,1792,1940,1,0,3
0,1793,2590,-1,0,3
0,1794,2320,1,0,3
0,1795,1480,1,0,3
0,1796,1740,1,0,3
0,1797,840,-1,0,3
0,1798,2110,1,0,3
0,1799,1420,1,0,3
0,1800,1380,1,1,0
0,1801,460,1,1,0
0,1802,3620,-1,1,0
0,1803,1710,-1,1,0
0,1804,6060,1,1,0
0,1805,270,-1,1,0
0,1806,4630,1,1,0
0,1807,2610,1,1,0
0,1808,6130,-1,1,0
0,1809,1110,-1,1,0
0,1810,8420,1,1,0
0,1811,2390,-1,1,0
0,1812,4010,1,1,0
0,1813,3380,1,1,0
0,1814,2260,-1,1,0
0,1815,900,1,1,0
0,1816,1360,1,1,0
0,1817,2710,-1,1,0
0,1818,9130,1,1,0
0,1819,1420,-1,1,0
0,1820,6800,1,1,0
0,1821,4740,-1,1,0
0,1822,1240,1,1,0
0,1823,4130,1,1,0
0,1824,2020,1,1,0
0,1825,2610,-1,1,0
0,1826,1850,1,1,0
0,1827,4100,-1,1,0
0,1828,550,-1,1,0
0,1829,1710,-1,1,0
0,1830,3970,-1,1,0
0,1831,1050,1,1,0
0,1832,2200,-1,1,0
0,1833,1830,-1,1,0
0,1834,730,-1,1,0
0,1835,2740,-1,1,0
0,1836,5390,-1,1,0
0,1837,4630,1,1,0
0,1838,3540,-1,1,0
0,1839,4090,-1,1,0
0,1840,600,1,1,0
0,1841,6220,1,1,0
0,1842,750,-1,1,0
0,1843,1220,-1,1,0
0,1844,8950,-1,1,0
0,1845,3870,-1,1,0
0,1846,5020,-1,1,0
0,1847,320,-1,1,0
0,1848,3260,-1,1,0
0,1849,3370,-1,1,0
0,1850,1110,1,1,0
0,1851,3280,1,1,0
0,1852,1900,-1,1,0
0,1853,1800,-1,1,0
0,1854,880,-1,1,0
0,1855,4100,-1,1,0
0,1856,3660,1,1,0
0,1857,1610,-1,1,0
0,1858,8170,-1,1,0
0,1859,2680,-1,1,0
0,1860,1690,-1,1,0
0,1861,5090,1,1,0
0,1862,6020,1,1,0
0,1863,2010,1,1,0
0,1864,12990,-1,1,0
0,1865,5640,1,1,0
0,1866,2790,-1,1,0
0,1867,4720,1,1,0
0,1868,3580,1,1,0
0,1869,2110,-1,1,0
0,1870,2780,1,1,0
0,1871,1700,1,1,0
0,1872,3740,1,1,0
0,1873,380,-1,1,0
0,1874,6020,-1,1,0
0,1875,590,-1,1,0
0,1876,3310,-1,1,0
0,1877,4050,-1,1,0
0,1878,1470,-1,1,0
0,1879,550,-1,1,0
0,1880,2230,-1,1,0
0,1881,890,-1,1,0
0,1882,8150,1,1,0
0,1883,13610,-1,1,0
0,1884,1220,-1,1,0
0,1885,1320,1,1,0
0,1886,5000,1,1,0
0,1887,7150,1,1,0
0,1888,1880,-1,1,0
0,1889,1500,-1,1,0
0,1890,1220,-1,1,0
0,1891,1980,-1,1,0
0,1892,3170,-1,1,0
0,1893,880,-1,1,0
0,1894,460,1,1,0
0,1895,1550,-1,1,0
0,1896,3680,-1,1,0
0,1897,5570,-1,1,0
0,1898,10320,-1,1,0
0,1899,6510,-1,1,0
0,1900,5100,1,1,0
0,1901,2090,1,1,0
0,1902,1800,-1,1,0
0,1903,2710,-1,1,0
0,1904,440,-1,1,0
0,1905,2070,-1,1,0
0,1906,1660,1,1,0
0,1907,6540,1,1,0
0,1908,480,-1,1,0
0,1909,350,-1,1,0
0,1910,10120,1,1,0
0,1911,5150,1,1,0
0,1912,1730,-1,1,0
0,1913,1530,-1,1,0
0,1914,4240,1,1,0
0,1915,1010,-1,1,0
0,1916,1990,-1,1,0
0,1917,3740,-1,1,0
0,1918,1300,-1,1,0
0,1919,620,-1,1,0
0,1920,1590,-1,1,0
0,1921,680,1,1,0
0,1922,770,-1,1,0
0,1923,1710,-1,1,0
0,1924,690,1,1,0
0,1925,2330,-1,1,0
0,1926,1240,-1,1,0
0,1927,6000,1,1,0
0,1928,5750,1,1,0
0,1929,4780,1,1,0
0,1930,8650,1,1,0
0,1931,4200,-1,1,0
0,1932,660,-1,1,0
0,1933,1030,1,1,0
0,1934,2910,-1,1,0
0,1935,1000,-1,1,0
0,1936,2080,1,1,0
0,1937,1290,1,1,0
0,1938,2820,1,1,0
0,1939,4200,-1,1,0
0,1940,5360,1,1,0
0,1941,2150,1,1,0
0,1942,14910,1,1,0
0,1943,5840,-1,1,0
0,1944,1700,-1,1,0
0,1945,2650,1,1,0
0,1946,1280,-1,1,0
0,1947,3580,-1,1,0
0,1948,3630,1,1,0
0,1949,4090,-1,1,0
0,1950,960,-1,1,0
0,1951,7760,-1,1,0
0,1952,1620,-1,1,0
0,1953,3090,-1,1,0
0,1954,1760,-1,1,0
0,1955,860,1,1,0
0,1956,470,-1,1,0
0,1957,1010,-1,1,0
0,1958,4520,1,1,0
0,1959,3810,-1,1,0
0,1960,720,1,1,0
0,1961,8310,1,1,0
0,1962,1490,1,1,0
0,1963,2440,-1,1,0
0,1964,910,-1,1,0
0,1965,1900,-1,1,0
0,1966,1250,1,1,0
0,1967,7320,1,1,0
0,1968,3310,-1,1,0
0,1969,580,-1,1,0
0,1970,1600,-1,1,0
0,1971,830,-1,1,0
0,1972,1210,-1,1,0
0,1973,1770,-1,1,0
0,1974,5750,1,1,0
0,1975,3410,1,1,0
0,1976,3920,1,1,0
0,1977,2630,-1,1,0
0,1978,1760,-1,1,0
0,1979,370,1,1,0
0,1980,1320,-1,1,0
0,1981,4050,-1,1,0
0,1982,1920,1,1,0
0,1983,5410,1,1,0
0,1984,2000,1,1,0
0,1985,2880,-1,1,0
0,1986,2370,1,1,0
0,1987,2730,-1,1,0
0,1988,2380,-1,1,0
0,1989,1310,-1,1,0
0,1990,980,1,1,0
0,1991,490,-1,1,0
0,1992,1930,-1,1,0
0,1993,1690,1,1,0
0,1994,960,-1,1,0
0,1995,1970,-1,1,0
0,1996,2780,1,1,0
0,1997,800,1,1,0
0,1998,1940,1,1,0
0,1999,5430,1,1,0
0,2000,6230,-1,1,0
0,2001,3840,1,1,0
0,2002,600,-1,1,0
0,2003,1100,1,1,0
0,2004,1500,1,1,0
0,2005,1810,-1,1,0
0,2006,470,-1,1,0
0,2007,3050,1,1,0
0,2008,2870,1,1,0
0,2009,8170,-1,1,0
0,2010,2450,-1,1,0
0,2011,5350,-1,1,0
0,2012,6670,-1,1,0
0,2013,7090,-1,1,0
0,2014,3040,-1,1,0
0,2015,4630,-1,1,0
0,2016,2590,-1,1,0
0,2017,7960,-1,1,0
0,2018,2190,-1,1,0
0,2019,530,-1,1,0
0,2020,2030,1,1,0
0,2021,3430,-1,1,0
0,2022,650,-1,1,0
0,2023,1030,-1,1,0
0,2024,3110,-1,1,0
0,2025,1640,-1,1,0
0,2026,2650,-1,1,0
0,2027,2450,1,1,0
0,2028,1530,-1,1,0
0,2029,8570,-1,1,0
0,2030,3800,-1,1,0
0,2031,2200,-1,1,0
0,2032,1720,-1,1,0
0,2033,10630,-1,1,0
0,2034,2030,-1,1,0
0,2035,1680,1,1,0
0,2036,930,-1,1,0
0,2037,1940,-1,1,0
0,2038,1270,-1,1,0
0,2039,3020,1,1,0
0,2040,470,1,1,0
0,2041,1750,-1,1,0
0,2042,800,1,1,0
0,2043,890,-1,1,0
0,2044,1350,1,1,0
0,2045,5650,-1,1,0
0,2046,2080,-1,1,0
0,2047,2600,-1,1,0
0,2048,2280,-1,1,0
0,2049,550,-1,1,0
0,2050,510,-1,1,0
0,2051,8070,1,1,0
0,2052,2210,1,1,0
0,2053,6520,-1,1,0
0,2054,5340,1,1,0
0,2055,9100,1,1,0
0,2056,4570,1,1,0
0,2057,690,-1,1,0
0,2058,1940,1,1,0
0,2059,880,1,1,0
0,2060,2240,1,1,0
0,2061,1030,1,1,0
0,2062,1900,-1,1,0
0,2063,2760,-1,1,0
0,2064,730,-1,1,0
0,2065,3300,1,1,0
0,2066,2310,-1,1,0
0,2067,1400,-1,1,0
0,2068,1150,1,1,0
0,2069,6430,1,1,0
0,2070,990,-1,1,0
0,2071,1110,1,1,0
0,2072,1230,1,1,0
0,2073,5320,1,1,0
0,2074,3230,1,1,0
0,2075,2380,1,1,0
0,2076,1450,-1,1,0
0,2077,3890,-1,1,0
0,2078,2310,-1,1,0
0,2079,2080,1,1,0
0,2080,4330,-1,1,0
0,2081,5000,-1,1,0
0,2082,3250,-1,1,0
0,2083,1720,1,1,0
0,2084,5280,-1,1,0
0,2085,5100,-1,1,0
0,2086,1250,1,1,0
0,2087,7730,-1,1,0
0,2088,3140,-1,1,0
0,2089,1740,1,1,0
0,2090,6520,1,1,0
0,2091,4320,1,1,0
0,2092,2090,-1,1,0
0,2093,870,1,1,0
0,2094,890,-1,1,0
0,2095,3980,-1,1,0
0,2096,7160,1,1,0
0,2097,720,-1,1,0
0,2098,1360,1,1,0
0,2099,1890,-1,1,0
0,2100,2290,1,1,0
0,2101,740,-1,1,0
0,2102,3360,-1,1,0
0,2103,1760,-1,1,0
0,2104,880,1,1,0
0,2105,1780,-1,1,0
0,2106,4390,1,1,0
0,2107,3590,-1,1,0
0,2108,1250,-1,1,0
0,2109,1320,-1,1,0
0,2110,2980,-1,1,0
0,2111,3190,1,1,0
0,2112,4490,-1,1,0
0,2113,850,-1,1,0
0,2114,2860,1,1,0
0,2115,1610,1,1,0
0,2116,8820,-1,1,0
0,2117,1310,-1,1,0
0,2118,3360,-1,1,0
0,2119,370,1,1,0
0,2120,1520,1,1,0
0,2121,3780,-1,1,0
0,2122,660,1,1,0
0,2123,850,1,1,0
0,2124,2000,-1,1,0
0,2125,1320,1,1,0
0,2126,1370,-1,1,0
0,2127,7090,-1,1,0
0,2128,1760,1,1,0
0,2129,1590,1,1,0
0,2130,4760,1,1,0
0,2131,5580,1,1,0
0,2132,6580,1,1,0
0,2133,2760,-1,1,0
0,2134,570,1,1,0
0,2135,2200,-1,1,0
0,2136,660,-1,1,0
0,2137,4560,-1,1,0
0,2138,2560,1,1,0
0,2139,1300,-1,1,0
0,2140,2800,1,1,0
0,2141,2780,1,1,0
0,2142,1840,1,1,0
0,2143,2890,-1,1,0
0,2144,1600,1,1,0
0,2145,1390,1,1,0
0,2146,7520,-1,1,0
0,2147,15410,1,1,0
0,2148,1010,-1,1,0
0,2149,1450,-1,1,0
0,2150,3020,-1,1,0
0,2151,7550,-1,1,0
0,2152,3500,-1,1,0
0,2153,3920,-1,1,0
0,2154,5760,1,1,0
0,2155,10740,-1,1,0
0,2156,610,-1,1,0
0,2157,840,-1,1,0
0,2158,1840,-1,1,0
0,2159,890,1,1,0
0,2160,1040,1,1,0
0,2161,730,-1,1,0
0,2162,2050,1,1,0
0,2163,4330,-1,1,0
0,2164,2600,-1,1,0
0,2165,980,-1,1,0
0,2166,1520,-1,1,0
0,2167,3530,1,1,0
0,2168,570,-1,1,0
0,2169,450,-1,1,0
0,2170,3660,-1,1,0
0,2171,2180,1,1,0
0,2172,1300,-1,1,0
0,2173,5960,1,1,0
0,2174,800,1,1,0
0,2175,1530,1,1,0
0,2176,1170,1,1,0
0,2177,1990,1,1,0
0,2178,2320,-1,1,0
0,2179,2600,-1,1,0
0,2180,1470,-1,1,0
0,2181,1190,-1,1,0
0,2182,1130,1,1,0
0,2183,10260,-1,1,0
0,2184,970,-1,1,0
0,2185,660,1,1,0
0,2186,910,-1,1,0
0,2187,830,1,1,0
0,2188,4750,1,1,0
0,2189,2350,-1,1,0
0,2190,1810,-1,1,0
0,2191,2610,-1,1,0
0,2192,4240,1,1,0
0,2193,380,-1,1,0
0,2194,310,1,1,0
0,2195,2720,1,1,0
0,2196,2900,1,1,0
0,2197,2060,-1,1,0
0,2198,780,1,1,0
0,2199,2830,-1,1,0
0,2200,680,-1,1,0
0,2201,1140,-1,1,0
0,2202,8310,1,1,0
0,2203,8260,1,1,0
0,2204,680,-1,1,0
0,2205,3570,-1,1,0
0,2206,3950,-1,1,0
0,2207,2760,-1,1,0
0,2208,420,-1,1,0
0,2209,2440,1,1,0
0,2210,3310,1,1,0
0,2211,4480,-1,1,0
0,2212,660,-1,1,0
0,2213,850,1,1,0
0,2214,850,-1,1,0
0,2215,1480,1,1,0
0,2216,1320,1,1,0
0,2217,4000,1,1,0
0,2218,6760,1,1,0
0,2219,3360,1,1,0
0,2220,3230,-1,1,0
0,2221,420,-1,1,0
0,2222,2930,1,1,0
0,2223,1830,-1,1,0
0,2224,390,1,1,0
0,2225,2330,1,1,0
0,2226,4720,-1,1,0
0,2227,1110,1,1,0
0,2228,940,1,1,0
0,2229,2430,-1,1,0
0,2230,1130,1,1,0
0,2231,640,1,1,0
0,2232,4770,-1,1,0
0,2233,3890,-1,1,0
0,2234,1280,-1,1,0
0,2235,3960,-1,1,0
0,2236,2280,-1,1,0
0,2237,830,-1,1,0
0,2238,3490,1,1,0
0,2239,4190,-1,1,0
0,2240,1350,-1,1,0
0,2241,4070,-1,1,0
0,2242,1340,-1,1,0
0,2243,1900,-1,1,0
0,2244,3840,-1,1,0
0,2245,4590,-1,1,0
0,2246,3580,-1,1,0
0,2247,8820,1,1,0
0,2248,3370,-1,1,0
0,2249,1420,1,1,0
0,2250,6990,-1,1,0
0,2251,1240,-1,1,0
0,2252,1490,-1,1,0
0,2253,2170,1,1,0
0,2254,2640,-1,1,0
0,2255,660,1,1,0
0,2256,1870,1,1,0
0,2257,2540,-1,1,0
0,2258,2260,-1,1,0
0,2259,1910,1,1,0
0,2260,8420,-1,1,0
0,2261,3230,-1,1,0
0,2262,710,-1,1,0
0,2263,920,1,1,0
0,2264,1030,1,1,0
0,2265,4270,1,1,0
0,2266,5160,1,1,0
0,2267,2880,1,1,0
0,2268,4680,1,1,0
0,2269,2620,-1,1,0
0,2270,1590,1,1,0
0,2271,920,1,1,0
0,2272,1940,-1,1,0
0,2273,3390,1,1,0
0,2274,6420,-1,1,0
0,2275,1100,1,1,0
0,2276,2390,-1,1,0
0,2277,2720,-1,1,0
0,2278,1680,1,1,0
0,2279,3170,1,1,0
0,2280,2320,1,1,0
0,2281,840,-1,1,0
0,2282,1690,-1,1,0
0,2283,8000,-1,1,0
0,2284,1530,1,1,0
0,2285,2630,-1,1,0
0,2286,910,-1,1,0
0,2287,7840,-1,1,0
0,2288,3320,1,1,0
0,2289,1250,-1,1,0
0,2290,860,-1,1,0
0,2291,5280,-1,1,0
0,2292,530,1,1,0
0,2293,4370,-1,1,0
0,2294,1550,-1,1,0
0,2295,6550,-1,1,0
0,2296,950,-1,1,0
0,2297,400,-1,1,0
0,2298,3380,1,1,0
0,2299,1310,1,1,0
0,2300,4980,-1,1,0
0,2301,540,-1,1,0
0,2302,2070,-1,1,0
0,2303,2530,-1,1,0
0,2304,4020,-1,1,0
0,2305,6690,-1,1,0
0,2306,3530,-1,1,0
0,2307,1430,1,1,0
0,2308,1610,1,1,0
0,2309,4730,1,1,0
0,2310,810,1,1,0
0,2311,2100,-1,1,0
0,2312,6010,1,1,0
0,2313,1270,-1,1,0
0,2314,1910,-1,1,0
0,2315,4380,1,1,0
0,2316,2120,-1,1,0
0,2317,2750,1,1,0
0,2318,480,1,1,0
0,2319,1250,-1,1,0
0,2320,1670,-1,1,0
0,2321,4690,1,1,0
0,2322,2710,1,1,0
0,2323,660,-1,1,0
0,2324,1850,1,1,0
0,2325,7570,-1,1,0
0,2326,2420,1,1,0
0,2327,4710,-1,1,0
0,2328,1270,1,1,0
0,2329,320,-1,1,0
0,2330,1270,-1,1,0
0,2331,9310,-1,1,0
0,2332,7700,1,1,0
0,2333,930,1,1,0
0,2334,1450,-1,1,0
0,2335,5960,1,1,0
0,2336,3630,-1,1,0
0,2337,8930,1,1,0
0,2338,1770,1,1,0
0,2339,2530,1,1,0
0,2340,9590,-1,1,0
0,2341,4780,-1,1,0
0,2342,1320,-1,1,0
0,2343,830,-1,1,0
0,2344,2310,-1,1,0
0,2345,1170,-1,1,0
0,2346,1800,-1,1,0
0,2347,5260,1,1,0
0,2348,1860,-1,1,0
0,2349,3610,-1,1,0
0,2350,2850,1,1,0
0,2351,3400,-1,1,0
0,2352,1860,-1,1,0
0,2353,2210,-1,1,0
0,2354,2730,1,1,0
0,2355,1060,1,1,0
0,2356,4850,-1,1,0
0,2357,800,-1,1,0
0,2358,3210,1,1,0
0,2359,1720,1,1,0
0,2360,860,-1,1,0
0,2361,4050,1,1,0
0,2362,1660,-1,1,0
0,2363,1630,1,1,0
0,2364,1270,-1,1,0
0,2365,2270,1,1,0
0,2366,2220,1,1,0
0,2367,1170,-1,1,0
0,2368,3260,-1,1,0
0,2369,1740,-1,1,0
0,2370,1010,1,1,0
0,2371,4340,-1,1,0
0,2372,1250,1,1,0
0,2373,5370,-1,1,0
0,2374,700,-1,1,0
0,2375,550,-1,1,0
0,2376,5200,-1,1,0
0,2377,1190,-1,1,0
0,2378,2730,-1,1,0
0,2379,1320,1,1,0
0,2380,3570,-1,1,0
0,2381,4160,-1,1,0
0,2382,4040,-1,1,0
0,2383,3210,1,1,0
0,2384,7170,-1,1,0
0,2385,4430,-1,1,0
0,2386,1720,1,1,0
0,2387,2620,-1,1,0
0,2388,4350,-1,1,0
0,2389,2060,1,1,0
0,2390,3440,-1,1,0
0,2391,2800,-1,1,0
0,2392,4420,-1,1,0
0,2393,2230,-1,1,0
0,2394,1310,1,1,0
0,2395,910,-1,1,0
0,2396,1100,-1,1,0
0,2397,4770,1,1,0
0,2398,1030,-1,1,0
0,2399,1700,-1,1,0
0,2400,4370,-1,1,1
0,2401,3430,1,1,1
0,2402,3020,-1,1,1
0,2403,5380,1,1,1
0,2404,2460,1,1,1
0,2405,1070,1,1,1
0,2406,1330,-1,1,1
0,2407,2520,-1,1,1
0,2408,4920,-1,1,1
0,2409,1940,-1,1,1
0,2410,1120,1,1,1
0,2411,940,-1,1,1
0,2412,1660,-1,1,1
0,2413,980,-1,1,1
0,2414,640,-1,1,1
0,2415,4080,-1,1,1
0,2416,2580,1,1,1
0,2417,1340,-1,1,1
0,2418,2870,1,1,1
0,2419,3600,1,1,1
0,2420,440,-1,1,1
0,2421,1500,1,1,1
0,2422,1930,1,1,1
0,2423,2630,-1,1,1
0,2424,8880,1,1,1
0,2425,520,-1,1,1
0,2426,1160,-1,1,1
0,2427,1070,-1,1,1
0,2428,1690,1,1,1
0,2429,1890,1,1,1
0,2430,5100,1,1,1
0,2431,4440,1,1,1
0,2432,910,1,1,1
0,2433,1160,-1,1,1
0,2434,3940,-1,1,1
0,2435,920,-1,1,1
0,2436,1450,-1,1,1
0,2437,550,-1,1,1
0,2438,4130,1,1,1
0,2439,760,-1,1,1
0,2440,1260,1,1,1
0,2441,2790,1,1,1
0,2442,3190,1,1,1
0,2443,890,-1,1,1
0,2444,1600,1,1,1
0,2445,2300,-1,1,1
0,2446,1560,1,1,1
0,2447,2870,-1,1,1
0,2448,920,1,1,1
0,2449,10340,1,1,1
0,2450,1480,1,1,1
0,2451,760,-1,1,1
0,2452,1180,1,1,1
0,2453,2170,-1,1,1
0,2454,2910,1,1,1
0,2455,1680,1,1,1
0,2456,1720,1,1,1
0,2457,1730,1,1,1
0,2458,4980,-1,1,1
0,2459,3300,1,1,1
0,2460,1350,1,1,1
0,2461,3520,1,1,1
0,2462,1920,-1,1,1
0,2463,2050,1,1,1
0,2464,2810,-1,1,1
0,2465,6680,1,1,1
0,2466,5090,-1,1,1
0,2467,610,-1,1,1
0,2468,1910,1,1,1
0,2469,290,1,1,1
0,2470,4370,1,1,1
0,2471,1320,1,1,1
0,2472,3280,1,1,1
0,2473,1970,1,1,1
0,2474,4480,1,1,1
0,2475,950,-1,1,1
0,2476,3950,1,1,1
0,2477,6380,-1,1,1
0,2478,1690,1,1,1
0,2479,1280,1,1,1
0,2480,2880,-1,1,1
0,2481,4650,1,1,1
0,2482,5070,-1,1,1
0,2483,2970,1,1,1
0,2484,9880,1,1,1
0,2485,7360,-1,1,1
0,2486,1980,-1,1,1
0,2487,1650,1,1,1
0,2488,910,1,1,1
0,2489,3940,-1,1,1
0,2490,3420,-1,1,1
0,2491,6700,1,1,1
0,2492,950,1,1,1
0,2493,2250,-1,1,1
0,2494,950,-1,1,1
0,2495,500,1,1,1
0,2496,2220,1,1,1
0,2497,1510,1,1,1
0,2498,1220,1,1,1
0,2499,980,-1,1,1
0,2500,440,-1,1,1
0,2501,1670,-1,1,1
0,2502,4580,1,1,1
0,2503,2780,-1,1,1
0,2504,3970,1,1,1
0,2505,7810,-1,1,1
0,2506,3690,-1,1,1
0,2507,6120,1,1,1
0,2508,1340,1,1,1
0,2509,3790,1,1,1
0,2510,1570,1,1,1
0,2511,1980,-1,1,1
0,2512,1700,1,1,1
0,2513,1360,1,1,1
0,2514,1220,-1,1,1
0,2515,8350,-1,1,1
0,2516,2980,-1,1,1
0,2517,3220,1,1,1
0,2518,1500,-1,1,1
0,2519,6880,1,1,1
0,2520,1250,1,1,1
0,2521,490,1,1,1
0,2522,1120,1,1,1
0,2523,2490,-1,1,1
0,2524,2940,-1,1,1
0,2525,4200,1,1,1
0,2526,6940,1,1,1
0,2527,5260,1,1,1
0,2528,3550,-1,1,1
0,2529,9920,-1,1,1
0,2530,2590,-1,1,1
0,2531,1970,-1,1,1
0,2532,320,1,1,1
0,2533,1330,-1,1,1
0,2534,1480,-1,1,1
0,2535,10470,1,1,1
0,2536,610,-1,1,1
0,2537,5320,-1,1,1
0,2538,5690,-1,1,1
0,2539,6570,-1,1,1
0,2540,1400,1,1,1
0,2541,860,-1,1,1
0,2542,2580,-1,1,1
0,2543,8560,1,1,1
0,2544,4550,-1,1,1
0,2545,4540,1,1,1
0,2546,15380,-1,1,1
0,2547,2010,1,1,1
0,2548,8880,1,1,1
0,2549,3930,1,1,1
0,2550,1920,1,1,1
0,2551,930,-1,1,1
0,2552,2840,1,1,1
0,2553,550,-1,1,1
0,2554,4750,-1,1,1
0,2555,4430,1,1,1
0,2556,3770,1,1,1
0,2557,1440,-1,1,1
0,2558,2640,-1,1,1
0,2559,1840,-1,1,1
0,2560,3130,1,1,1
0,2561,1190,1,1,1
0,2562,1330,-1,1,1
0,2563,8310,-1,1,1
0,2564,13960,1,1,1
0,2565,1880,-1,1,1
0,2566,1750,-1,1,1
0,2567,4800,-1,1,1
0,2568,2300,1,1,1
0,2569,1970,1,1,1
0,2570,1850,1,1,1
0,2571,2990,-1,1,1
0,2572,3100,-1,1,1
0,2573,3610,-1,1,1
0,2574,1580,1,1,1
0,2575,1450,-1,1,1
0,2576,770,1,1,1
0,2577,9090,1,1,1
0,2578,3620,-1,1,1
0,2579,6110,1,1,1
0,2580,3360,-1,1,1
0,2581,1020,-1,1,1
0,2582,3110,1,1,1
0,2583,2800,-1,1,1
0,2584,2500,-1,1,1
0,2585,1260,-1,1,1
0,2586,10300,1,1,1
0,2587,3560,1,1,1
0,2588,3430,1,1,1
0,2589,9310,1,1,1
0,2590,4170,-1,1,1
0,2591,890,-1,1,1
0,2592,470,-1,1,1
0,2593,2370,-1,1,1
0,2594,7450,1,1,1
0,2595,4220,1,1,1
0,2596,3250,-1,1,1
0,2597,4250,-1,1,1
0,2598,2320,1,1,1
0,2599,6600,-1,1,1
0,2600,1680,-1,1,1
0,2601,2260,-1,1,1
0,2602,4140,-1,1,1
0,2603,2370,1,1,1
0,2604,1500,1,1,1
0,2605,5160,1,1,1
0,2606,3840,1,1,1
0,2607,3790,1,1,1
0,2608,3700,-1,1,1
0,2609,12470,-1,1,1
0,2610,3150,-1,1,1
0,2611,320,1,1,1
0,2612,900,-1,1,1
0,2613,920,-1,1,1
0,2614,2440,1,1,1
0,2615,3710,1,1,1
0,2616,3470,1,1,1
0,2617,5280,1,1,1
0,2618,4080,1,1,1
0,2619,2150,1,1,1
0,2620,1890,1,1,1
0,2621,2840,-1,1,1
0,2622,7250,-1,1,1
0,2623,990,-1,1,1
0,2624,2070,1,1,1
0,2625,520,-1,1,1
0,2626,430,-1,1,1
0,2627,1810,1,1,1
0,2628,310,-1,1,1
0,2629,1290,-1,1,1
0,2630,1380,-1,1,1
0,2631,510,1,1,1
0,2632,3160,1,1,1
0,2633,1320,1,1,1
0,2634,2790,1,1,1
0,2635,1680,1,1,1
0,2636,1340,1,1,1
0,2637,1470,-1,1,1
0,2638,7140,-1,1,1
0,2639,3380,1,1,1
0,2640,610,1,1,1
0,2641,3050,-1,1,1
0,2642,1210,1,1,1
0,2643,3610,-1,1,1
0,2644,2020,-1,1,1
0,2645,4270,-1,1,1
0,2646,15370,-1,1,1
0,2647,1990,1,1,1
0,2648,3910,1,1,1
0,2649,3330,1,1,1
0,2650,420,-1,1,1
0,2651,1670,-1,1,1
0,2652,4500,1,1,1
0,2653,1670,-1,1,1
0,2654,500,1,1,1
0,2655,2950,-1,1,1
0,2656,2120,1,1,1
0,2657,1080,-1,1,1
0,2658,2750,1,1,1
0,2659,2150,-1,1,1
0,2660,1370,-1,1,1
0,2661,1170,1,1,1
0,2662,1150,1,1,1
0,2663,4790,-1,1,1
0,2664,1760,-1,1,1
0,2665,2400,-1,1,1
0,2666,1190,-1,1,1
0,2667,950,1,1,1
0,2668,4470,-1,1,1
0,2669,1120,1,1,1
0,2670,1440,-1,1,1
0,2671,3040,1,1,1
0,2672,3250,-1,1,1
0,2673,2590,-1,1,1
0,2674,3880,-1,1,1
0,2675,690,-1,1,1
0,2676,4360,1,1,1
0,2677,2870,-1,1,1
0,2678,2140,1,1,1
0,2679,2000,-1,1,1
0,2680,5170,1,1,1
0,2681,9610,1,1,1
0,2682,1460,-1,1,1
0,2683,3720,-1,1,1
0,2684,2320,1,1,1
0,2685,1100,1,1,1
0,2686,1870,-1,1,1
0,2687,9750,-1,1,1
0,2688,1850,1,1,1
0,2689,720,1,1,1
0,2690,1060,-1,1,1
0,2691,1190,-1,1,1
0,2692,11610,1,1,1
0,2693,7290,-1,1,1
0,2694,7750,1,1,1
0,2695,1620,-1,1,1
0,2696,1080,-1,1,1
0,2697,2610,1,1,1
0,2698,880,-1,1,1
0,2699,2480,-1,1,1
0,2700,1420,-1,1,2
0,2701,2510,1,1,2
0,2702,940,-1,1,2
0,2703,3220,-1,1,2
0,2704,3070,1,1,2
0,2705,3630,-1,1,2
0,2706,9670,-1,1,2
0,2707,7550,1,1,2
0,2708,1640,-1,1,2
0,2709,1150,1,1,2
0,2710,1150,1,1,2
0,2711,480,-1,1,2
0,2712,1300,-1,1,2
0,2713,4560,-1,1,2
0,2714,9450,-1,1,2
0,2715,6970,1,1,2
0,2716,880,-1,1,2
0,2717,1280,-1,1,2
0,2718,2540,-1,1,2
0,2719,1840,-1,1,2
0,2720,2340,-1,1,2
0,2721,3700,1,1,2
0,2722,2980,1,1,2
0,2723,1480,1,1,2
0,2724,1800,1,1,2
0,2725,4300,-1,1,2
0,2726,7170,1,1,2
0,2727,4940,-1,1,2
0,2728,1070,1,1,2
0,2729,520,-1,1,2
0,2730,7470,-1,1,2
0,2731,3540,1,1,2
0,2732,1650,-1,1,2
0,2733,360,1,1,2
0,2734,2410,1,1,2
0,2735,4460,1,1,2
0,2736,3490,-1,1,2
0,2737,2170,-1,1,2
0,2738,2290,1,1,2
0,2739,5540,-1,1,2
0,2740,730,1,1,2
0,2741,2170,-1,1,2
0,2742,2870,-1,1,2
0,2743,3530,1,1,2
0,2744,1640,-1,1,2
0,2745,3980,1,1,2
0,2746,2200,1,1,2
0,2747,2140,-1,1,2
0,2748,1090,1,1,2
0,2749,2830,-1,1,2
0,2750,1660,1,1,2
0,2751,1020,1,1,2
0,2752,720,1,1,2
0,2753,1030,1,1,2
0,2754,2030,1,1,2
0,2755,820,-1,1,2
0,2756,4020,-1,1,2
0,2757,3470,-1,1,2
0,2758,2700,-1,1,2
0,2759,3950,1,1,2
0,2760,2850,-1,1,2
0,2761,4460,1,1,2
0,2762,2520,-1,1,2
0,2763,1210,1,1,2
0,2764,1450,-1,1,2
0,2765,830,-1,1,2
0,2766,940,-1,1,2
0,2767,10320,1,1,2
0,2768,6770,1,1,2
0,2769,6660,1,1,2
0,2770,1960,1,1,2
0,2771,7220,1,1,2
0,2772,940,-1,1,2
0,2773,1570,1,1,2
0,2774,4350,1,1,2
0,2775,3240,-1,1,2
0,2776,890,-1,1,2
0,2777,970,1,1,2
0,2778,1040,1,1,2
0,2779,530,1,1,2
0,2780,2760,1,1,2
0,2781,940,-1,1,2
0,2782,770,1,1,2
0,2783,1520,-1,1,2
0,2784,1080,-1,1,2
0,2785,2490,1,1,2
0,2786,8930,-1,1,2
0,2787,3360,1,1,2
0,2788,7210,1,1,2
0,2789,3230,-1,1,2
0,2790,2030,-1,1,2
0,2791,1080,-1,1,2
0,2792,1760,1,1,2
0,2793,2710,-1,1,2
0,2794,2020,1,1,2
0,2795,3160,-1,1,2
0,2796,2610,1,1,2
0,2797,4470,1,1,2
0,2798,3920,1,1,2
0,2799,440,1,1,2
0,2800,5970,1,1,2
0,2801,1260,-1,1,2
0,2802,2120,-1,1,2
0,2803,2200,1,1,2
0,2804,3180,-1,1,2
0,2805,1600,1,1,2
0,2806,460,1,1,2
0,2807,5890,1,1,2
0,2808,10570,-1,1,2
0,2809,2350,1,1,2
0,2810,2210,-1,1,2
0,2811,1180,-1,1,2
0,2812,2080,1,1,2
0,2813,11640,1,1,2
0,2814,810,-1,1,2
0,2815,5490,-1,1,2
0,2816,7110,1,1,2
0,2817,1330,1,1,2
0,2818,2580,1,1,2
0,2819,1410,1,1,2
0,2820,1910,1,1,2
0,2821,5380,-1,1,2
0,2822,4460,1,1,2
0,2823,9060,1,1,2
0,2824,1000,-1,1,2
0,2825,910,-1,1,2
0,2826,800,-1,1,2
0,2827,7560,1,1,2
0,2828,12220,1,1,2
0,2829,2320,1,1,2
0,2830,1750,1,1,2
0,2831,3870,1,1,2
0,2832,3590,1,1,2
0,2833,930,1,1,2
0,2834,1000,1,1,2
0,2835,9500,1,1,2
0,2836,4750,-1,1,2
0,2837,500,-1,1,2
0,2838,2860,-1,1,2
0,2839,2740,-1,1,2
0,2840,3510,-1,1,2
0,2841,6680,-1,1,2
0,2842,2160,1,1,2
0,2843,1690,1,1,2
0,2844,2580,1,1,2
0,2845,1200,1,1,2
0,2846,4010,-1,1,2
0,2847,2280,1,1,2
0,2848,4000,-1,1,2
0,2849,2200,-1,1,2
0,2850,3240,1,1,2
0,2851,6130,-1,1,2
0,2852,680,1,1,2
0,2853,1740,-1,1,2
0,2854,3360,1,1,2
0,2855,3010,1,1,2
0,2856,3870,-1,1,2
0,2857,2400,1,1,2
0,2858,340,-1,1,2
0,2859,6710,1,1,2
0,2860,1370,1,1,2
0,2861,1890,1,1,2
0,2862,1680,-1,1,2
0,2863,1100,1,1,2
0,2864,1220,1,1,2
0,2865,5470,1,1,2
0,2866,4890,-1,1,2
0,2867,3750,-1,1,2
0,2868,1750,1,1,2
0,2869,2440,1,1,2
0,2870,3970,1,1,2
0,2871,1340,-1,1,2
0,2872,2050,1,1,2
0,2873,1800,1,1,2
0,2874,2290,1,1,2
0,2875,3410,1,1,2
0,2876,1500,1,1,2
0,2877,1480,1,1,2
0,2878,1390,1,1,2
0,2879,1090,-1,1,2
0,2880,1570,-1,1,2
0,2881,1480,1,1,2
0,2882,2150,1,1,2
0,2883,7020,-1,1,2
0,2884,4030,1,1,2
0,2885,2060,1,1,2
0,2886,6740,-1,1,2
0,2887,840,1,1,2
0,2888,2060,1,1,2
0,2889,1640,1,1,2
0,2890,2780,1,1,2
0,2891,690,-1,1,2
0,2892,970,1,1,2
0,2893,1040,1,1,2
0,2894,6370,1,1,2
0,2895,8190,-1,1,2
0,2896,2800,1,1,2
0,2897,3870,-1,1,2
0,2898,3460,-1,1,2
0,2899,9790,1,1,2
0,2900,3100,-1,1,2
0,2901,5570,1,1,2
0,2902,3430,-1,1,2
0,2903,3470,1,1,2
0,2904,1980,1,1,2
0,2905,1960,-1,1,2
0,2906,470,1,1,2
0,2907,1240,1,1,2
0,2908,4120,1,1,2
0,2909,11410,1,1,2
0,2910,1910,1,1,2
0,2911,1070,1,1,2
0,2912,3550,1,1,2
0,2913,530,-1,1,2
0,2914,5830,1,1,2
0,2915,10890,1,1,2
0,2916,2380,-1,1,2
0,2917,4670,-1,1,2
0,2918,5470,-1,1,2
0,2919,3770,1,1,2
0,2920,3660,-1,1,2
0,2921,2530,1,1,2
0,2922,5280,1,1,2
0,2923,910,-1,1,2
0,2924,1200,1,1,2
0,2925,5350,-1,1,2
0,2926,1700,1,1,2
0,2927,2370,-1,1,2
0,2928,5490,1,1,2
0,2929,1310,-1,1,2
0,2930,1860,1,1,2
0,2931,3260,1,1,2
0,2932,1000,-1,1,2
0,2933,3880,1,1,2
0,2934,1360,1,1,2
0,2935,1760,1,1,2
0,2936,1370,-1,1,2
0,2937,8290,1,1,2
0,2938,1030,1,1,2
0,2939,2820,1,1,2
0,2940,660,-1,1,2
0,2941,7180,1,1,2
0,2942,8930,-1,1,2
0,2943,550,1,1,2
0,2944,3350,-1,1,2
0,2945,1440,1,1,2
0,2946,5400,1,1,2
0,2947,750,-1,1,2
0,2948,1970,1,1,2
0,2949,2050,-1,1,2
0,2950,2450,-1,1,2
0,2951,550,-1,1,2
0,2952,3350,-1,1,2
0,2953,2120,-1,1,2
0,2954,1220,-1,1,2
0,2955,1180,-1,1,2
0,2956,1550,1,1,2
0,2957,570,-1,1,2
0,2958,1290,1,1,2
0,2959,5800,-1,1,2
0,2960,3570,1,1,2
0,2961,1550,-1,1,2
0,2962,940,1,1,2
0,2963,1160,1,1,2
0,2964,1400,1,1,2
0,2965,1180,-1,1,2
0,2966,4110,1,1,2
0,2967,1350,-1,1,2
0,2968,1350,-1,1,2
0,2969,1580,1,1,2
0,2970,2520,-1,1,2
0,2971,1410,-1,1,2
0,2972,4290,-1,1,2
0,2973,1890,1,1,2
0,2974,3990,1,1,2
0,2975,860,-1,1,2
0,2976,1620,1,1,2
0,2977,14480,1,1,2
0,2978,1220,1,1,2
0,2979,840,-1,1,2
0,2980,1010,1,1,2
0,2981,3520,-1,1,2
0,2982,1470,1,1,2
0,2983,3550,-1,1,2
0,2984,1900,-1,1,2
0,2985,1350,1,1,2
0,2986,3430,-1,1,2
0,2987,1220,1,1,2
0,2988,6150,1,1,2
0,2989,3560,1,1,2
0,2990,1070,1,1,2
0,2991,2550,1,1,2
0,2992,3320,1,1,2
0,2993,4220,1,1,2
0,2994,3390,1,1,2
0,2995,2080,-1,1,2
0,2996,1420,-1,1,2
0,2997,1320,-1,1,2
0,2998,1190,-1,1,2
0,2999,1820,-1,1,2
0,3000,1760,1,1,2
0,3001,1400,1,1,2
0,3002,2030,-1,1,2
0,3003,1180,1,1,2
0,3004,1480,1,1,2
0,3005,3540,1,1,2
0,3006,430,-1,1,2
0,3007,1140,1,1,2
0,3008,4320,1,1,2
0,3009,4980,-1,1,2
0,3010,970,-1,1,2
0,3011,5820,1,1,2
0,3012,700,-1,1,2
0,3013,7510,1,1,2
0,3014,450,1,1,2
0,3015,2410,1,1,2
0,3016,1210,-1,1,2
0,3017,3800,1,1,2
0,3018,870,-1,1,2
0,3019,1370,1,1,2
0,3020,4440,-1,1,2
0,3021,1100,-1,1,2
0,3022,710,-1,1,2
0,3023,1170,1,1,2
0,3024,1380,1,1,2
0,3025,2010,-1,1,2
0,3026,5180,-1,1,2
0,3027,340,1,1,2
0,3028,3320,1,1,2
0,3029,1410,1,1,2
0,3030,1930,1,1,2
0,3031,2600,-1,1,2
0,3032,1140,1,1,2
0,3033,4990,1,1,2
0,3034,4650,-1,1,2
0,3035,5400,1,1,2
0,3036,5040,1,1,2
0,3037,3610,1,1,2
0,3038,1230,1,1,2
0,3039,1180,1,1,2
0,3040,4620,-1,1,2
0,3041,1610,-1,1,2
0,3042,4030,1,1,2
0,3043,1390,1,1,2
0,3044,2300,1,1,2
0,3045,1990,1,1,2
0,3046,2550,1,1,2
0,3047,700,1,1,2
0,3048,560,1,1,2
0,3049,2710,1,1,2
0,3050,2350,-1,1,2
0,3051,2670,1,1,2
0,3052,1890,-1,1,2
0,3053,1280,1,1,2
0,3054,1030,-1,1,2
0,3055,860,-1,1,2
0,3056,2430,-1,1,2
0,3057,8750,1,1,2
0,3058,2620,-1,1,2
0,3059,2130,-1,1,2
0,3060,3520,1,1,2
0,3061,2830,-1,1,2
0,3062,2920,1,1,2
0,3063,2510,1,1,2
0,3064,1480,1,1,2
0,3065,2450,1,1,2
0,3066,4000,1,1,2
0,3067,2570,1,1,2
0,3068,3290,-1,1,2
0,3069,3740,1,1,2
0,3070,1240,1,1,2
0,3071,4080,1,1,2
0,3072,470,1,1,2
0,3073,6010,-1,1,2
0,3074,1590,-1,1,2
0,3075,900,-1,1,2
0,3076,460,-1,1,2
0,3077,790,-1,1,2
0,3078,880,-1,1,2
0,3079,2100,-1,1,2
0,3080,5180,1,1,2
0,3081,1260,-1,1,2
0,3082,4620,-1,1,2
0,3083,2470,1,1,2
0,3084,1290,1,1,2
0,3085,3520,1,1,2
0,3086,590,-1,1,2
0,3087,7640,1,1,2
0,3088,3420,1,1,2
0,3089,2160,-1,1,2
0,3090,2520,-1,1,2
0,3091,5960,-1,1,2
0,3092,1850,-1,1,2
0,3093,770,1,1,2
0,3094,4490,-1,1,2
0,3095,1630,1,1,2
0,3096,470,-1,1,2
0,3097,3000,1,1,2
0,3098,2650,1,1,2
0,3099,1110,1,1,2
0,3100,3130,-1,1,2
0,3101,2660,1,1,2
0,3102,540,1,1,2
0,3103,1280,1,1,2
0,3104,1860,1,1,2
0,3105,1380,-1,1,2
0,3106,5470,1,1,2
0,3107,2570,1,1,2
0,3108,1040,-1,1,2
0,3109,4520,-1,1,2
0,3110,6220,1,1,2
0,3111,610,1,1,2
0,3112,9660,1,1,2
0,3113,2070,1,1,2
0,3114,12160,1,1,2
0,3115,1760,1,1,2
0,3116,3460,1,1,2
0,3117,4590,-1,1,2
0,3118,810,-1,1,2
0,3119,4500,1,1,2
0,3120,1950,1,1,2
0,3121,5050,-1,1,2
0,3122,3130,-1,1,2
0,3123,1360,1,1,2
0,3124,2480,-1,1,2
0,3125,900,-1,1,2
0,3126,840,-1,1,2
0,3127,3820,-1,1,2
0,3128,13670,-1,1,2
0,3129,5230,1,1,2
0,3130,500,-1,1,2
0,3131,1400,1,1,2
0,3132,3400,1,1,2
0,3133,1080,-1,1,2
0,3134,2910,-1,1,2
0,3135,3670,-1,1,2
0,3136,1280,-1,1,2
0,3137,2030,1,1,2
0,3138,3130,1,1,2
0,3139,3120,1,1,2
0,3140,9360,1,1,2
0,3141,2780,1,1,2
0,3142,3340,1,1,2
0,3143,1270,-1,1,2
0,3144,2170,1,1,2
0,3145,4710,1,1,2
0,3146,2830,-1,1,2
0,3147,1820,1,1,2
0,3148,1500,1,1,2
0,3149,4030,1,1,2
0,3150,870,-1,1,2
0,3151,3600,-1,1,2
0,3152,2660,-1,1,2
0,3153,4160,1,1,2
0,3154,4220,1,1,2
0,3155,2930,-1,1,2
0,3156,800,-1,1,2
0,3157,1520,1,1,2
0,3158,8010,-1,1,2
0,3159,940,1,1,2
0,3160,660,-1,1,2
0,3161,1020,1,1,2
0,3162,6140,1,1,2
0,3163,610,-1,1,2
0,3164,3580,-1,1,2
0,3165,1570,1,1,2
0,3166,930,1,1,2
0,3167,3150,1,1,2
0,3168,850,1,1,2
0,3169,660,1,1,2
0,3170,1190,-1,1,2
0,3171,1530,1,1,2
0,3172,720,1,1,2
0,3173,2070,1,1,2
0,3174,1530,1,1,2
0,3175,1410,1,1,2
0,3176,1460,1,1,2
0,3177,1290,-1,1,2
0,3178,460,-1,1,2
0,3179,7480,-1,1,2
0,3180,2470,-1,1,2
0,3181,2620,1,1,2
0,3182,1530,-1,1,2
0,3183,2460,1,1,2
0,3184,4920,1,1,2
0,3185,5080,-1,1,2
0,3186,3530,-1,1,2
0,3187,2830,1,1,2
0,3188,7860,-1,1,2
0,3189,960,-1,1,2
0,3190,12530,1,1,2
0,3191,3830,1,1,2
0,3192,1880,1,1,2
0,3193,760,-1,1,2
0,3194,10100,-1,1,2
0,3195,450,-1,1,2
0,3196,2040,1,1,2
0,3197,2170,-1,1,2
0,3198,2500,1,1,2
0,3199,970,-1,1,2
0,3200,2490,-1,1,2
0,3201,5950,1,1,2
0,3202,3530,1,1,2
0,3203,1140,1,1,2
0,3204,870,-1,1,2
0,3205,1640,1,1,2
0,3206,730,1,1,2
0,3207,1600,-1,1,2
0,3208,1230,1,1,2
0,3209,6570,1,1,2
0,3210,950,-1,1,2
0,3211,430,-1,1,2
0,3212,2220,1,1,2
0,3213,2840,-1,1,2
0,3214,1420,1,1,2
0,3215,3330,1,1,2
0,3216,1150,-1,1,2
0,3217,4080,-1,1,2
0,3218,1160,1,1,2
0,3219,1230,1,1,2
0,3220,4410,1,1,2
0,3221,940,1,1,2
0,3222,2330,1,1,2
0,3223,2380,1,1,2
0,3224,1290,1,1,2
0,3225,4900,-1,1,2
0,3226,640,1,1,2
0,3227,3330,1,1,2
0,3228,4100,1,1,2
0,3229,2630,1,1,2
0,3230,730,1,1,2
0,3231,4040,1,1,2
0,3232,8540,-1,1,2
0,3233,850,-1,1,2
0,3234,800,1,1,2
0,3235,2230,-1,1,2
0,3236,3860,1,1,2
0,3237,3750,-1,1,2
0,3238,3310,-1,1,2
0,3239,5180,-1,1,2
0,3240,8210,-1,1,2
0,3241,1790,1,1,2
0,3242,3000,1,1,2
0,3243,2080,-1,1,2
0,3244,6160,1,1,2
0,3245,2060,1,1,2
0,3246,4620,-1,1,2
0,3247,8060,1,1,2
0,3248,3500,-1,1,2
0,3249,5810,1,1,2
0,3250,3270,1,1,2
0,3251,3100,-1,1,2
0,3252,5700,1,1,2
0,3253,4820,-1,1,2
0,3254,910,-1,1,2
0,3255,2880,1,1,2
0,3256,380,-1,1,2
0,3257,1310,-1,1,2
0,3258,1760,-1,1,2
0,3259,1210,-1,1,2
0,3260,3240,1,1,2
0,3261,3450,-1,1,2
0,3262,5750,-1,1,2
0,3263,3090,1,1,2
0,3264,1690,-1,1,2
0,3265,1390,1,1,2
0,3266,380,-1,1,2
0,3267,1740,1,1,2
0,3268,1250,1,1,2
0,3269,1820,1,1,2
0,3270,2840,1,1,2
0,3271,730,-1,1,2
0,3272,1340,1,1,2
0,3273,600,1,1,2
0,3274,1100,-1,1,2
0,3275,840,-1,1,2
0,3276,4760,1,1,2
0,3277,5710,-1,1,2
0,3278,2260,1,1,2
0,3279,10800,1,1,2
0,3280,1240,1,1,2
0,3281,1310,-1,1,2
0,3282,9700,-1,1,2
0,3283,2360,-1,1,2
0,3284,6830,-1,1,2
0,3285,2990,-1,1,2
0,3286,5500,1,1,2
0,3287,1210,1,1,2
0,3288,5860,-1,1,2
0,3289,1660,-1,1,2
0,3290,6980,-1,1,2
0,3291,3000,1,1,2
0,3292,660,-1,1,2
0,3293,3900,-1,1,2
0,3294,1940,-1,1,2
0,3295,370,-1,1,2
0,3296,2290,-1,1,2
0,3297,1990,-1,1,2
0,3298,1210,1,1,2
0,3299,4080,1,1,2
0,3300,640,1,1,3
0,3301,2000,1,1,3
0,3302,510,-1,1,3
0,3303,2980,1,1,3
0,3304,1290,1,1,3
0,3305,4270,1,1,3
0,3306,1110,-1,1,3
0,3307,3150,-1,1,3
0,3308,4770,1,1,3
0,3309,3450,-1,1,3
0,3310,5650,1,1,3
0,3311,1130,1,1,3
0,3312,4260,-1,1,3
0,3313,3580,-1,1,3
0,3314,6770,-1,1,3
0,3315,1790,1,1,3
0,3316,3280,1,1,3
0,3317,1600,1,1,3
0,3318,2490,1,1,3
0,3319,380,1,1,3
0,3320,1760,-1,1,3
0,3321,1030,1,1,3
0,3322,2530,1,1,3
0,3323,900,1,1,3
0,3324,970,1,1,3
0,3325,4200,-1,1,3
0,3326,2030,-1,1,3
0,3327,4390,1,1,3
0,3328,520,1,1,3
0,3329,4210,1,1,3
0,3330,1620,1,1,3
0,3331,520,-1,1,3
0,3332,17180,-1,1,3
0,3333,580,1,1,3
0,3334,930,1,1,3
0,3335,8170,1,1,3
0,3336,15230,1,1,3
0,3337,2310,1,1,3
0,3338,1830,1,1,3
0,3339,4050,-1,1,3
0,3340,2970,1,1,3
0,3341,2460,1,1,3
0,3342,3830,1,1,3
0,3343,4230,1,1,3
0,3344,890,1,1,3
0,3345,2030,1,1,3
0,3346,840,-1,1,3
0,3347,1070,1,1,3
0,3348,4110,-1,1,3
0,3349,820,-1,1,3
0,3350,1280,1,1,3
0,3351,880,-1,1,3
0,3352,2260,1,1,3
0,3353,2900,-1,1,3
0,3354,9810,1,1,3
0,3355,3610,1,1,3
0,3356,1450,-1,1,3
0,3357,3770,1,1,3
0,3358,6610,1,1,3
0,3359,6190,-1,1,3
0,3360,900,-1,1,3
0,3361,6420,1,1,3
0,3362,1490,1,1,3
0,3363,2400,-1,1,3
0,3364,5940,-1,1,3
0,3365,2820,1,1,3
0,3366,1770,1,1,3
0,3367,3920,1,1,3
0,3368,1370,1,1,3
0,3369,750,1,1,3
0,3370,1750,1,1,3
0,3371,1490,1,1,3
0,3372,1030,1,1,3
0,3373,3470,1,1,3
0,3374,11370,1,1,3
0,3375,3160,1,1,3
0,3376,3370,-1,1,3
0,3377,6440,1,1,3
0,3378,1530,-1,1,3
0,3379,1900,1,1,3
0,3380,1590,1,1,3
0,3381,2090,-1,1,3
0,3382,1370,1,1,3
0,3383,2380,1,1,3
0,3384,380,1,1,3
0,3385,610,-1,1,3
0,3386,1750,1,1,3
0,3387,1310,1,1,3
0,3388,1240,1,1,3
0,3389,1950,1,1,3
0,3390,2360,-1,1,3
0,3391,2700,1,1,3
0,3392,1150,1,1,3
0,3393,2720,1,1,3
0,3394,1640,1,1,3
0,3395,4010,-1,1,3
0,3396,1620,1,1,3
0,3397,2250,1,1,3
0,3398,1290,-1,1,3
0,3399,1470,1,1,3
0,3400,3270,1,1,3
0,3401,440,-1,1,3
0,3402,2810,1,1,3
0,3403,5440,-1,1,3
0,3404,1730,1,1,3
0,3405,510,-1,1,3
0,3406,1370,1,1,3
0,3407,4990,1,1,3
0,3408,2390,1,1,3
0,3409,1460,1,1,3
0,3410,7400,1,1,3
0,3411,1270,1,1,3
0,3412,2550,1,1,3
0,3413,980,-1,1,3
0,3414,7560,1,1,3
0,3415,1110,1,1,3
0,3416,7700,1,1,3
0,3417,4600,1,1,3
0,3418,4950,1,1,3
0,3419,3390,-1,1,3
0,3420,820,1,1,3
0,3421,1840,-1,1,3
0,3422,2530,1,1,3
0,3423,960,-1,1,3
0,3424,5490,1,1,3
0,3425,500,1,1,3
0,3426,2040,1,1,3
0,3427,2920,1,1,3
0,3428,6020,-1,1,3
0,3429,750,-1,1,3
0,3430,810,1,1,3
0,3431,2130,1,1,3
0,3432,730,-1,1,3
0,3433,530,1,1,3
0,3434,7390,1,1,3
0,3435,1620,1,1,3
0,3436,2260,1,1,3
0,3437,1070,-1,1,3
0,3438,840,1,1,3
0,3439,4080,-1,1,3
0,3440,3520,-1,1,3
0,3441,460,-1,1,3
0,3442,2260,-1,1,3
0,3443,360,-1,1,3
0,3444,4070,1,1,3
0,3445,1960,1,1,3
0,3446,860,1,1,3
0,3447,2590,-1,1,3
0,3448,440,-1,1,3
0,3449,1310,-1,1,3
0,3450,1030,-1,1,3
0,3451,1390,1,1,3
0,3452,980,-1,1,3
0,3453,1850,1,1,3
0,3454,6200,1,1,3
0,3455,1720,1,1,3
0,3456,1480,1,1,3
0,3457,1700,-1,1,3
0,3458,3870,1,1,3
0,3459,2590,1,1,3
0,3460,920,-1,1,3
0,3461,3120,1,1,3
0,3462,1710,-1,1,3
0,3463,5720,1,1,3
0,3464,2200,-1,1,3
0,3465,3410,1,1,3
0,3466,1470,-1,1,3
0,3467,780,1,1,3
0,3468,720,-1,1,3
0,3469,2390,1,1,3
0,3470,790,-1,1,3
0,3471,2820,-1,1,3
0,3472,3110,-1,1,3
0,3473,1590,1,1,3
0,3474,1820,1,1,3
0,3475,670,1,1,3
0,3476,3390,1,1,3
0,3477,3120,1,1,3
0,3478,2380,-1,1,3
0,3479,570,1,1,3
0,3480,1550,1,1,3
0,3481,2730,1,1,3
0,3482,4640,1,1,3
0,3483,1840,-1,1,3
0,3484,3650,1,1,3
0,3485,3770,-1,1,3
0,3486,4700,-1,1,3
0,3487,1790,1,1,3
0,3488,4590,1,1,3
0,3489,1900,1,1,3
0,3490,1100,1,1,3
0,3491,6420,1,1,3
0,3492,1430,1,1,3
0,3493,16390,1,1,3
0,3494,1750,1,1,3
0,3495,2660,1,1,3
0,3496,6390,-1,1,3
0,3497,2000,1,1,3
0,3498,2010,1,1,3
0,3499,1160,-1,1,3
0,3500,2750,1,1,3
0,3501,2840,1,1,3
0,3502,1490,1,1,3
0,3503,7380,1,1,3
0,3504,1580,1,1,3
0,3505,8240,1,1,3
0,3506,800,1,1,3
0,3507,1000,1,1,3
0,3508,1110,1,1,3
0,3509,2110,1,1,3
0,3510,740,1,1,3
0,3511,4510,1,1,3
0,3512,500,1,1,3
0,3513,660,-1,1,3
0,3514,1820,1,1,3
0,3515,4250,-1,1,3
0,3516,2670,1,1,3
0,3517,330,-1,1,3
0,3518,950,1,1,3
0,3519,380,1,1,3
0,3520,3330,-1,1,3
0,3521,2090,1,1,3
0,3522,1080,1,1,3
0,3523,1670,1,1,3
0,3524,3680,1,1,3
0,3525,3860,1,1,3
0,3526,1550,1,1,3
0,3527,760,-1,1,3
0,3528,550,-1,1,3
0,3529,8280,-1,1,3
0,3530,2770,-1,1,3
0,3531,3560,1,1,3
0,3532,670,1,1,3
0,3533,4810,1,1,3
0,3534,2760,1,1,3
0,3535,2770,-1,1,3
0,3536,770,1,1,3
0,3537,1010,1,1,3
0,3538,2340,1,1,3
0,3539,1680,-1,1,3
0,3540,3220,1,1,3
0,3541,5130,1,1,3
0,3542,2570,1,1,3
0,3543,4460,1,1,3
0,3544,4620,-1,1,3
0,3545,9860,-1,1,3
0,3546,10300,-1,1,3
0,3547,1100,1,1,3
0,3548,4460,1,1,3
0,3549,600,1,1,3
0,3550,600,-1,1,3
0,3551,720,1,1,3
0,3552,4040,1,1,3
0,3553,790,1,1,3
0,3554,1910,-1,1,3
0,3555,1770,1,1,3
0,3556,500,-1,1,3
0,3557,2590,-1,1,3
0,3558,2940,-1,1,3
0,3559,8380,-1,1,3
0,3560,670,1,1,3
0,3561,1920,1,1,3
0,3562,3850,1,1,3
0,3563,1960,1,1,3
0,3564,5870,1,1,3
0,3565,1120,1,1,3
0,3566,3470,1,1,3
0,3567,1430,1,1,3
0,3568,4200,-1,1,3
0,3569,820,-1,1,3
0,3570,6170,1,1,3
0,3571,770,-1,1,3
0,3572,1820,-1,1,3
0,3573,6170,1,1,3
0,3574,2560,1,1,3
0,3575,660,-1,1,3
0,3576,2260,1,1,3
0,3577,6030,1,1,3
0,3578,2910,1,1,3
0,3579,450,1,1,3
0,3580,2720,1,1,3
0,3581,3600,1,1,3
0,3582,1490,1,1,3
0,3583,11270,1,1,3
0,3584,500,-1,1,3
0,3585,3210,-1,1,3
0,3586,6640,1,1,3
0,3587,4640,1,1,3
0,3588,1080,1,1,3
0,3589,3190,-1,1,3
0,3590,1590,1,1,3
0,3591,4180,1,1,3
0,3592,1460,1,1,3
0,3593,1430,1,1,3
0,3594,2640,-1,1,3
0,3595,6530,1,1,3
0,3596,2590,1,1,3
0,3597,1710,1,1,3
0,3598,6870,1,1,3
0,3599,2670,-1,1,3
0,3600,3880,-1,2,0
0,3601,1300,-1,2,0
0,3602,1450,1,2,0
0,3603,4340,-1,2,0
0,3604,1950,-1,2,0
0,3605,4180,1,2,0
0,3606,1170,-1,2,0
0,3607,5750,-1,2,0
0,3608,460,1,2,0
0,3609,1820,-1,2,0
0,3610,750,1,2,0
0,3611,520,-1,2,0
0,3612,1880,-1,2,0
0,3613,2530,1,2,0
0,3614,430,-1,2,0
0,3615,4380,-1,2,0
0,3616,4100,-1,2,0
0,3617,1040,-1,2,0
0,3618,1220,-1,2,0
0,3619,10140,-1,2,0
0,3620,2160,1,2,0
0,3621,2390,-1,2,0
0,3622,5410,-1,2,0
0,3623,2870,-1,2,0
0,3624,2320,-1,2,0
0,3625,1060,1,2,0
0,3626,1360,1,2,0
0,3627,2790,-1,2,0
0,3628,2700,-1,2,0
0,3629,3670,-1,2,0
0,3630,1860,-1,2,0
0,3631,1640,-1,2,0
0,3632,4230,1,2,0
0,3633,4310,1,2,0
0,3634,2850,-1,2,0
0,3635,4160,-1,2,0
0,3636,970,-1,2,0
0,3637,870,-1,2,0
0,3638,1660,-1,2,0
0,3639,1680,-1,2,0
0,3640,7780,-1,2,0
0,3641,3520,-1,2,0
0,3642,2910,1,2,0
0,3643,4920,1,2,0
0,3644,1190,-1,2,0
0,3645,16740,-1,2,0
0,3646,1700,-1,2,0
0,3647,1470,1,2,0
0,3648,1300,1,2,0
0,3649,3190,-1,2,0
0,3650,600,-1,2,0
0,3651,3580,-1,2,0
0,3652,3060,-1,2,0
0,3653,1750,-1,2,0
0,3654,2120,-1,2,0
0,3655,4060,-1,2,0
0,3656,2660,-1,2,0
0,3657,760,-1,2,0
0,3658,4520,-1,2,0
0,3659,2450,-1,2,0
0,3660,7350,1,2,0
0,3661,1920,1,2,0
0,3662,6080,-1,2,0
0,3663,10190,-1,2,0
0,3664,3670,-1,2,0
0,3665,1450,-1,2,0
0,3666,750,1,2,0
0,3667,3400,-1,2,0
0,3668,800,-1,2,0
0,3669,6110,-1,2,0
0,3670,1370,-1,2,0
0,3671,1200,-1,2,0
0,3672,980,-1,2,0
0,3673,3480,-1,2,0
0,3674,3980,-1,2,0
0,3675,3130,1,2,0
0,3676,4980,-1,2,0
0,3677,3150,1,2,0
0,3678,2440,1,2,0
0,3679,7800,-1,2,0
0,3680,5380,-1,2,0
0,3681,310,1,2,0
0,3682,2810,1,2,0
0,3683,2120,-1,2,0
0,3684,500,1,2,0
0,3685,7250,1,2,0
0,3686,2310,1,2,0
0,3687,2690,-1,2,0
0,3688,4500,-1,2,0
0,3689,1780,1,2,0
0,3690,1670,-1,2,0
0,3691,1560,-1,2,0
0,3692,2670,1,2,0
0,3693,2600,-1,2,0
0,3694,1140,1,2,0
0,3695,5660,1,2,0
0,3696,490,-1,2,0
0,3697,1930,1,2,0
0,3698,1690,1,2,0
0,3699,1260,-1,2,0
0,3700,2070,-1,2,0
0,3701,5500,-1,2,0
0,3702,770,-1,2,0
0,3703,2230,-1,2,0
0,3704,850,-1,2,0
0,3705,510,-1,2,0
0,3706,4080,-1,2,0
0,3707,1480,-1,2,0
0,3708,7220,-1,2,0
0,3709,2630,-1,2,0
0,3710,4430,-1,2,0
0,3711,4470,-1,2,0
0,3712,1050,-1,2,0
0,3713,1030,1,2,0
0,3714,2010,-1,2,0
0,3715,1170,-1,2,0
0,3716,4800,-1,2,0
0,3717,1090,-1,2,0
0,3718,5200,-1,2,0
0,3719,5400,1,2,0
0,3720,3290,-1,2,0
0,3721,2950,-1,2,0
0,3722,1010,1,2,0
0,3723,2610,-1,2,0
0,3724,4810,-1,2,0
0,3725,1860,1,2,0
0,3726,9040,-1,2,0
0,3727,3950,-1,2,0
0,3728,6040,-1,2,0
0,3729,280,-1,2,0
0,3730,5540,1,2,0
0,3731,4380,-1,2,0
0,3732,7080,-1,2,0
0,3733,770,-1,2,0
0,3734,2420,1,2,0
0,3735,6250,-1,2,0
0,3736,4770,1,2,0
0,3737,5730,-1,2,0
0,3738,1770,-1,2,0
0,3739,2150,-1,2,0
0,3740,3040,1,2,0
0,3741,840,1,2,0
0,3742,3800,-1,2,0
0,3743,3760,1,2,0
0,3744,2270,1,2,0
0,3745,1250,-1,2,0
0,3746,6020,1,2,0
0,3747,3980,-1,2,0
0,3748,5600,-1,2,0
0,3749,4360,-1,2,0
0,3750,1390,1,2,0
0,3751,3130,-1,2,0
0,3752,1610,-1,2,0
0,3753,5590,-1,2,0
0,3754,1310,-1,2,0
0,3755,1300,-1,2,0
0,3756,1240,1,2,0
0,3757,3290,-1,2,0
0,3758,1180,-1,2,0
0,3759,4150,-1,2,0
0,3760,3060,-1,2,0
0,3761,1840,-1,2,0
0,3762,1680,-1,2,0
0,3763,2800,-1,2,0
0,3764,1460,1,2,0
0,3765,690,1,2,0
0,3766,1200,-1,2,0
0,3767,1190,-1,2,0
0,3768,700,-1,2,0
0,3769,680,1,2,0
0,3770,1930,1,2,0
0,3771,1200,-1,2,0
0,3772,2260,-1,2,0
0,3773,2150,-1,2,0
0,3774,740,1,2,0
0,3775,4190,-1,2,0
0,3776,7240,1,2,0
0,3777,5920,1,2,0
0,3778,670,-1,2,0
0,3779,3120,1,2,0
0,3780,7280,-1,2,0
0,3781,970,-1,2,0
0,3782,3850,-1,2,0
0,3783,6700,-1,2,0
0,3784,4670,-1,2,0
0,3785,1890,1,2,0
0,3786,1800,-1,2,0
0,3787,1860,1,2,0
0,3788,1440,1,2,0
0,3789,4890,-1,2,0
0,3790,1880,-1,2,0
0,3791,7610,-1,2,0
0,3792,2420,1,2,0
0,3793,820,-1,2,0
0,3794,1640,-1,2,0
0,3795,2720,-1,2,0
0,3796,1300,-1,2,0
0,3797,770,-1,2,0
0,3798,5010,-1,2,0
0,3799,2310,-1,2,0
0,3800,970,1,2,0
0,3801,6030,-1,2,0
0,3802,1120,-1,2,0
0,3803,5760,1,2,0
0,3804,2750,1,2,0
0,3805,11010,1,2,0
0,3806,2550,-1,2,0
0,3807,950,-1,2,0
0,3808,2380,-1,2,0
0,3809,2440,-1,2,0
0,3810,1590,-1,2,0
0,3811,5600,-1,2,0
0,3812,4650,-1,2,0
0,3813,550,-1,2,0
0,3814,1110,-1,2,0
0,3815,1510,1,2,0
0,3816,760,-1,2,0
0,3817,830,1,2,0
0,3818,4980,1,2,0
0,3819,840,-1,2,0
0,3820,1680,-1,2,0
0,3821,870,-1,2,0
0,3822,1120,-1,2,0
0,3823,420,-1,2,0
0,3824,580,1,2,0
0,3825,2580,-1,2,0
0,3826,7150,-1,2,0
0,3827,3080,1,2,0
0,3828,6480,-1,2,0
0,3829,6780,-1,2,0
0,3830,450,1,2,0
0,3831,1520,1,2,0
0,3832,3950,-1,2,0
0,3833,1170,-1,2,0
0,3834,5940,-1,2,0
0,3835,4560,-1,2,0
0,3836,1050,1,2,0
0,3837,5260,-1,2,0
0,3838,2130,1,2,0
0,3839,1670,-1,2,0
0,3840,1060,-1,2,0
0,3841,2880,-1,2,0
0,3842,3080,-1,2,0
0,3843,3300,-1,2,0
0,3844,8920,1,2,0
0,3845,1030,-1,2,0
0,3846,1920,-1,2,0
0,3847,510,-1,2,0
0,3848,790,-1,2,0
0,3849,3840,-1,2,0
0,3850,1910,-1,2,0
0,3851,3750,-1,2,0
0,3852,340,1,2,0
0,3853,2010,-1,2,0
0,3854,1860,-1,2,0
0,3855,4500,-1,2,0
0,3856,2920,-1,2,0
0,3857,1880,-1,2,0
0,3858,1730,-1,2,0
0,3859,750,-1,2,0
0,3860,2390,-1,2,0
0,3861,830,1,2,0
0,3862,4880,-1,2,0
0,3863,1830,-1,2,0
0,3864,4040,-1,2,0
0,3865,3990,-1,2,0
0,3866,1850,-1,2,0
0,3867,450,-1,2,0
0,3868,1400,-1,2,0
0,3869,4790,-1,2,0
0,3870,660,-1,2,0
0,3871,7230,-1,2,0
0,3872,860,1,2,0
0,3873,4260,-1,2,0
0,3874,6440,-1,2,0
0,3875,4400,1,2,0
0,3876,9890,1,2,0
0,3877,6680,-1,2,0
0,3878,3660,-1,2,0
0,3879,4350,-1,2,0
0,3880,690,-1,2,0
0,3881,3940,-1,2,0
0,3882,3840,-1,2,0
0,3883,4160,-1,2,0
0,3884,2210,1,2,0
0,3885,2330,1,2,0
0,3886,13170,-1,2,0
0,3887,910,-1,2,0
0,3888,2560,-1,2,0
0,3889,1310,-1,2,0
0,3890,1060,-1,2,0
0,3891,4810,1,2,0
0,3892,2210,1,2,0
0,3893,2970,-1,2,0
0,3894,1100,-1,2,0
0,3895,1470,1,2,0
0,3896,5390,1,2,0
0,3897,950,1,2,0
0,3898,880,-1,2,0
0,3899,5150,-1,2,0
0,3900,1840,-1,2,0
0,3901,840,-1,2,0
0,3902,2300,-1,2,0
0,3903,1790,-1,2,0
0,3904,2410,-1,2,0
0,3905,1070,1,2,0
0,3906,3730,1,2,0
0,3907,3190,1,2,0
0,3908,4410,-1,2,0
0,3909,2020,1,2,0
0,3910,1460,-1,2,0
0,3911,4040,1,2,0
0,3912,2200,-1,2,0
0,3913,780,-1,2,0
0,3914,4990,-1,2,0
0,3915,2580,-1,2,0
0,3916,1270,1,2,0
0,3917,470,-1,2,0
0,3918,1750,-1,2,0
0,3919,1180,1,2,0
0,3920,1090,1,2,0
0,3921,1840,-1,2,0
0,3922,1230,-1,2,0
0,3923,2380,-1,2,0
0,3924,4290,-1,2,0
0,3925,4350,-1,2,0
0,3926,1710,1,2,0
0,3927,1430,1,2,0
0,3928,4690,-1,2,0
0,3929,560,-1,2,0
0,3930,1350,1,2,0
0,3931,970,-1,2,0
0,3932,1770,-1,2,0
0,3933,4880,-1,2,0
0,3934,3680,-1,2,0
0,3935,1850,-1,2,0
0,3936,600,-1,2,0
0,3937,1840,-1,2,0
0,3938,1340,1,2,0
0,3939,4680,1,2,0
0,3940,2630,-1,2,0
0,3941,1870,1,2,0
0,3942,3280,-1,2,0
0,3943,3910,-1,2,0
0,3944,1330,1,2,0
0,3945,5740,-1,2,0
0,3946,1710,1,2,0
0,3947,1970,1,2,0
0,3948,1410,-1,2,0
0,3949,1130,-1,2,0
0,3950,850,-1,2,0
0,3951,1760,1,2,0
0,3952,2870,-1,2,0
0,3953,3050,1,2,0
0,3954,4480,-1,2,0
0,3955,3800,-1,2,0
0,3956,2140,1,2,0
0,3957,830,1,2,0
0,3958,3240,1,2,0
0,3959,1840,1,2,0
0,3960,1110,-1,2,0
0,3961,6500,-1,2,0
0,3962,1350,-1,2,0
0,3963,4960,1,2,0
0,3964,1840,-1,2,0
0,3965,540,-1,2,0
0,3966,1250,-1,2,0
0,3967,930,-1,2,0
0,3968,770,-1,2,0
0,3969,490,1,2,0
0,3970,2430,-1,2,0
0,3971,960,-1,2,0
0,3972,1340,1,2,0
0,3973,310,-1,2,0
0,3974,5760,-1,2,0
0,3975,660,1,2,0
0,3976,1550,-1,2,0
0,3977,2420,-1,2,0
0,3978,2170,1,2,0
0,3979,890,-1,2,0
0,3980,3230,-1,2,0
0,3981,2870,-1,2,0
0,3982,1140,1,2,0
0,3983,1100,-1,2,0
0,3984,2620,1,2,0
0,3985,1370,1,2,0
0,3986,2860,1,2,0
0,3987,3620,-1,2,0
0,3988,7600,-1,2,0
0,3989,1050,1,2,0
0,3990,1370,-1,2,0
0,3991,570,1,2,0
0,3992,760,1,2,0
0,3993,1670,-1,2,0
0,3994,5320,1,2,0
0,3995,1270,1,2,0
0,3996,1840,1,2,0
0,3997,720,1,2,0
0,3998,2410,-1,2,0
0,3999,400,-1,2,0
0,4000,2500,-1,2,0
0,4001,3070,-1,2,0
0,4002,4570,-1,2,0
0,4003,1820,-1,2,0
0,4004,1040,-1,2,0
0,4005,440,-1,2,0
0,4006,2780,1,2,0
0,4007,3570,-1,2,0
0,4008,4120,-1,2,0
0,4009,9100,-1,2,0
0,4010,2560,1,2,0
0,4011,820,-1,2,0
0,4012,1970,-1,2,0
0,4013,6260,1,2,0
0,4014,8470,-1,2,0
0,4015,870,-1,2,0
0,4016,7490,-1,2,0
0,4017,2650,-1,2,0
0,4018,7920,-1,2,0
0,4019,10360,-1,2,0
0,4020,1930,-1,2,0
0,4021,1200,1,2,0
0,4022,1290,-1,2,0
0,4023,1330,-1,2,0
0,4024,2450,-1,2,0
0,4025,2560,1,2,0
0,4026,1540,1,2,0
0,4027,3150,-1,2,0
0,4028,850,1,2,0
0,4029,3610,-1,2,0
0,4030,1590,-1,2,0
0,4031,970,-1,2,0
0,4032,1480,-1,2,0
0,4033,6260,-1,2,0
0,4034,1880,1,2,0
0,4035,1120,-1,2,0
0,4036,670,-1,2,0
0,4037,2220,-1,2,0
0,4038,700,-1,2,0
0,4039,6450,1,2,0
0,4040,2900,-1,2,0
0,4041,440,-1,2,0
0,4042,3310,-1,2,0
0,4043,1190,1,2,0
0,4044,6020,-1,2,0
0,4045,6120,1,2,0
0,4046,9640,-1,2,0
0,4047,2730,-1,2,0
0,4048,2400,1,2,0
0,4049,2280,-1,2,0
0,4050,6170,-1,2,0
0,4051,7280,-1,2,0
0,4052,760,-1,2,0
0,4053,2180,-1,2,0
0,4054,2450,1,2,0
0,4055,520,-1,2,0
0,4056,2120,-1,2,0
0,4057,5210,1,2,0
0,4058,3230,-1,2,0
0,4059,3620,-1,2,0
0,4060,3830,-1,2,0
0,4061,8410,1,2,0
0,4062,2960,-1,2,0
0,4063,3330,-1,2,0
0,4064,600,-1,2,0
0,4065,850,-1,2,0
0,4066,3480,-1,2,0
0,4067,1530,1,2,0
0,4068,2800,1,2,0
0,4069,4550,1,2,0
0,4070,2580,-1,2,0
0,4071,3510,-1,2,0
0,4072,1640,1,2,0
0,4073,2530,1,2,0
0,4074,13250,-1,2,0
0,4075,1970,-1,2,0
0,4076,3080,-1,2,0
0,4077,2170,-1,2,0
0,4078,3120,1,2,0
0,4079,5500,1,2,0
0,4080,1740,-1,2,0
0,4081,2180,1,2,0
0,4082,1630,-1,2,0
0,4083,1180,-1,2,0
0,4084,1520,-1,2,0
0,4085,960,-1,2,0
0,4086,2980,1,2,0
0,4087,970,1,2,0
0,4088,5690,-1,2,0
0,4089,1650,-1,2,0
0,4090,2150,1,2,0
0,4091,2860,-1,2,0
0,4092,6130,-1,2,0
0,4093,2540,-1,2,0
0,4094,780,-1,2,0
0,4095,4980,1,2,0
0,4096,3290,-1,2,0
0,4097,280,-1,2,0
0,4098,3790,1,2,0
0,4099,1030,-1,2,0
0,4100,1870,-1,2,0
0,4101,2270,-1,2,0
0,4102,3410,1,2,0
0,4103,6440,-1,2,0
0,4104,1670,1,2,0
0,4105,1410,1,2,0
0,4106,1670,-1,2,0
0,4107,4900,1,2,0
0,4108,3970,-1,2,0
0,4109,1710,-1,2,0
0,4110,1530,-1,2,0
0,4111,6830,-1,2,0
0,4112,1400,-1,2,0
0,4113,5620,-1,2,0
0,4114,9830,1,2,0
0,4115,2810,-1,2,0
0,4116,2560,-1,2,0
0,4117,2150,1,2,0
0,4118,3390,-1,2,0
0,4119,2240,1,2,0
0,4120,530,1,2,0
0,4121,3800,1,2,0
0,4122,2740,1,2,0
0,4123,9750,-1,2,0
0,4124,1620,-1,2,0
0,4125,6470,-1,2,0
0,4126,4400,1,2,0
0,4127,830,1,2,0
0,4128,900,-1,2,0
0,4129,1240,-1,2,0
0,4130,2680,-1,2,0
0,4131,610,-1,2,0
0,4132,2840,-1,2,0
0,4133,2380,-1,2,0
0,4134,1250,-1,2,0
0,4135,1240,1,2,0
0,4136,2720,1,2,0
0,4137,1640,-1,2,0
0,4138,1990,1,2,0
0,4139,830,-1,2,0
0,4140,3030,-1,2,0
0,4141,220,-1,2,0
0,4142,1940,1,2,0
0,4143,1570,-1,2,0
0,4144,2790,-1,2,0
0,4145,750,1,2,0
0,4146,3860,-1,2,0
0,4147,3050,1,2,0
0,4148,1010,1,2,0
0,4149,920,1,2,0
0,4150,1320,-1,2,0
0,4151,1200,-1,2,0
0,4152,4260,1,2,0
0,4153,4020,-1,2,0
0,4154,1670,1,2,0
0,4155,3560,1,2,0
0,4156,8410,1,2,0
0,4157,3560,-1,2,0
0,4158,3900,-1,2,0
0,4159,1280,-1,2,0
0,4160,2870,-1,2,0
0,4161,1910,-1,2,0
0,4162,3530,-1,2,0
0,4163,710,-1,2,0
0,4164,2850,-1,2,0
0,4165,1540,-1,2,0
0,4166,3380,-1,2,0
0,4167,4520,-1,2,0
0,4168,4030,1,2,0
0,4169,550,-1,2,0
0,4170,1600,-1,2,0
0,4171,3180,-1,2,0
0,4172,2540,-1,2,0
0,4173,2070,-1,2,0
0,4174,1880,-1,2,0
0,4175,3730,-1,2,0
0,4176,4410,-1,2,0
0,4177,3680,1,2,0
0,4178,3200,1,2,0
0,4179,900,1,2,0
0,4180,3480,-1,2,0
0,4181,1290,-1,2,0
0,4182,5030,1,2,0
0,4183,4800,-1,2,0
0,4184,4360,-1,2,0
0,4185,1110,-1,2,0
0,4186,2210,-1,2,0
0,4187,5380,-1,2,0
0,4188,1080,-1,2,0
0,4189,10010,1,2,0
0,4190,1570,-1,2,0
0,4191,5740,1,2,0
0,4192,1740,-1,2,0
0,4193,2840,-1,2,0
0,4194,5030,1,2,0
0,4195,4980,-1,2,0
0,4196,2300,1,2,0
0,4197,1060,-1,2,0
0,4198,1200,-1,2,0
0,4199,780,-1,2,0
0,4200,3590,-1,2,1
0,4201,5800,-1,2,1
0,4202,7850,1,2,1
0,4203,2720,1,2,1
0,4204,3460,1,2,1
0,4205,10300,1,2,1
0,4206,490,-1,2,1
0,4207,2410,1,2,1
0,4208,760,-1,2,1
0,4209,2170,1,2,1
0,4210,3780,-1,2,1
0,4211,4360,-1,2,1
0,4212,3760,-1,2,1
0,4213,4270,-1,2,1
0,4214,900,-1,2,1
0,4215,3280,1,2,1
0,4216,4900,-1,2,1
0,4217,880,-1,2,1
0,4218,1890,-1,2,1
0,4219,6180,1,2,1
0,4220,6940,-1,2,1
0,4221,7840,-1,2,1
0,4222,9100,1,2,1
0,4223,1420,1,2,1
0,4224,7210,-1,2,1
0,4225,1670,-1,2,1
0,4226,520,-1,2,1
0,4227,1490,-1,2,1
0,4228,970,-1,2,1
0,4229,1940,-1,2,1
0,4230,5170,1,2,1
0,4231,6990,-1,2,1
0,4232,1130,-1,2,1
0,4233,620,-1,2,1
0,4234,1450,1,2,1
0,4235,1060,1,2,1
0,4236,2360,-1,2,1
0,4237,1970,-1,2,1
0,4238,1900,-1,2,1
0,4239,1010,1,2,1
0,4240,8690,-1,2,1
0,4241,1940,-1,2,1
0,4242,630,-1,2,1
0,4243,2220,-1,2,1
0,4244,2100,-1,2,1
0,4245,2780,1,2,1
0,4246,12410,-1,2,1
0,4247,1500,1,2,1
0,4248,820,1,2,1
0,4249,1300,-1,2,1
0,4250,1430,-1,2,1
0,4251,2920,-1,2,1
0,4252,1460,-1,2,1
0,4253,4810,-1,2,1
0,4254,7930,1,2,1
0,4255,970,-1,2,1
0,4256,2840,-1,2,1
0,4257,560,1,2,1
0,4258,4860,-1,2,1
0,4259,4420,-1,2,1
0,4260,1600,1,2,1
0,4261,680,1,2,1
0,4262,2900,-1,2,1
0,4263,14660,1,2,1
0,4264,1360,1,2,1
0,4265,4730,1,2,1
0,4266,3090,-1,2,1
0,4267,4400,-1,2,1
0,4268,280,-1,2,1
0,4269,2320,1,2,1
0,4270,2210,1,2,1
0,4271,350,1,2,1
0,4272,920,-1,2,1
0,4273,4090,-1,2,1
0,4274,1860,-1,2,1
0,4275,4680,1,2,1
0,4276,4550,1,2,1
0,4277,480,-1,2,1
0,4278,5980,-1,2,1
0,4279,1700,1,2,1
0,4280,4450,1,2,1
0,4281,420,1,2,1
0,4282,2460,1,2,1
0,4283,1520,-1,2,1
0,4284,830,-1,2,1
0,4285,790,-1,2,1
0,4286,4900,-1,2,1
0,4287,3060,1,2,1
0,4288,1790,1,2,1
0,4289,1990,1,2,1
0,4290,2740,1,2,1
0,4291,1680,1,2,1
0,4292,1910,1,2,1
0,4293,4190,1,2,1
0,4294,2240,-1,2,1
0,4295,970,-1,2,1
0,4296,2170,1,2,1
0,4297,15110,-1,2,1
0,4298,5260,1,2,1
0,4299,1270,1,2,1
0,4300,780,-1,2,1
0,4301,1710,-1,2,1
0,4302,1700,1,2,1
0,4303,1710,1,2,1
0,4304,1720,-1,2,1
0,4305,7690,1,2,1
0,4306,4720,1,2,1
0,4307,2820,-1,2,1
0,4308,730,1,2,1
0,4309,4920,1,2,1
0,4310,1470,-1,2,1
0,4311,2380,-1,2,1
0,4312,2220,-1,2,1
0,4313,1840,1,2,1
0,4314,1550,-1,2,1
0,4315,760,1,2,1
0,4316,2470,1,2,1
0,4317,2020,-1,2,1
0,4318,1290,-1,2,1
0,4319,1480,-1,2,1
0,4320,1300,-1,2,1
0,4321,400,-1,2,1
0,4322,1600,-1,2,1
0,4323,860,1,2,1
0,4324,6500,1,2,1
0,4325,3210,-1,2,1
0,4326,1700,1,2,1
0,4327,1920,-1,2,1
0,4328,1880,-1,2,1
0,4329,4750,1,2,1
0,4330,3240,-1,2,1
0,4331,5510,-1,2,1
0,4332,1570,-1,2,1
0,4333,410,1,2,1
0,4334,1600,-1,2,1
0,4335,5110,-1,2,1
0,4336,6160,1,2,1
0,4337,620,-1,2,1
0,4338,3410,-1,2,1
0,4339,970,-1,2,1
0,4340,2930,1,2,1
0,4341,1110,-1,2,1
0,4342,5560,-1,2,1
0,4343,2070,1,2,1
0,4344,1490,-1,2,1
0,4345,2160,1,2,1
0,4346,670,-1,2,1
0,4347,9500,1,2,1
0,4348,2620,-1,2,1
0,4349,1630,-1,2,1
0,4350,2370,-1,2,1
0,4351,7160,-1,2,1
0,4352,970,1,2,1
0,4353,1350,-1,2,1
0,4354,2260,1,2,1
0,4355,5010,1,2,1
0,4356,680,-1,2,1
0,4357,6080,-1,2,1
0,4358,3170,-1,2,1
0,4359,8460,-1,2,1
0,4360,3920,-1,2,1
0,4361,8790,-1,2,1
0,4362,720,-1,2,1
0,4363,980,-1,2,1
0,4364,2070,1,2,1
0,4365,1670,1,2,1
0,4366,1690,1,2,1
0,4367,4760,-1,2,1
0,4368,1320,1,2,1
0,4369,3460,-1,2,1
0,4370,3280,1,2,1
0,4371,21380,1,2,1
0,4372,1300,-1,2,1
0,4373,3100,-1,2,1
0,4374,1320,-1,2,1
0,4375,1340,-1,2,1
0,4376,5810,1,2,1
0,4377,930,-1,2,1
0,4378,620,1,2,1
0,4379,1160,-1,2,1
0,4380,2140,-1,2,1
0,4381,2870,1,2,1
0,4382,5640,1,2,1
0,4383,860,-1,2,1
0,4384,2790,-1,2,1
0,4385,2200,-1,2,1
0,4386,700,-1,2,1
0,4387,4870,1,2,1
0,4388,1740,1,2,1
0,4389,410,-1,2,1
0,4390,2440,1,2,1
0,4391,1550,-1,2,1
0,4392,2300,-1,2,1
0,4393,1030,-1,2,1
0,4394,4210,-1,2,1
0,4395,3510,1,2,1
0,4396,2890,-1,2,1
0,4397,870,-1,2,1
0,4398,2430,1,2,1
0,4399,760,-1,2,1
0,4400,1910,1,2,1
0,4401,780,-1,2,1
0,4402,4100,1,2,1
0,4403,2100,-1,2,1
0,4404,1420,1,2,1
0,4405,830,-1,2,1
0,4406,2700,1,2,1
0,4407,2470,-1,2,1
0,4408,3340,-1,2,1
0,4409,1090,-1,2,1
0,4410,3670,-1,2,1
0,4411,2710,1,2,1
0,4412,1650,1,2,1
0,4413,1420,1,2,1
0,4414,2750,-1,2,1
0,4415,4340,-1,2,1
0,4416,2840,-1,2,1
0,4417,660,-1,2,1
0,4418,5240,1,2,1
0,4419,7400,1,2,1
0,4420,2240,-1,2,1
0,4421,2080,-1,2,1
0,4422,360,-1,2,1
0,4423,1110,-1,2,1
0,4424,3670,-1,2,1
0,4425,6520,-1,2,1
0,4426,1320,1,2,1
0,4427,2170,-1,2,1
0,4428,520,-1,2,1
0,4429,3640,-1,2,1
0,4430,1460,-1,2,1
0,4431,930,1,2,1
0,4432,1670,-1,2,1
0,4433,4690,1,2,1
0,4434,4270,-1,2,1
0,4435,1090,-1,2,1
0,4436,3080,1,2,1
0,4437,2260,-1,2,1
0,4438,2530,-1,2,1
0,4439,15980,1,2,1
0,4440,3820,1,2,1
0,4441,1850,1,2,1
0,4442,1080,-1,2,1
0,4443,960,-1,2,1
0,4444,4960,-1,2,1
0,4445,810,-1,2,1
0,4446,1900,1,2,1
0,4447,3480,-1,2,1
0,4448,2010,1,2,1
0,4449,2120,1,2,1
0,4450,8610,1,2,1
0,4451,5290,1,2,1
0,4452,3850,-1,2,1
0,4453,2250,-1,2,1
0,4454,12820,1,2,1
0,4455,740,-1,2,1
0,4456,1170,1,2,1
0,4457,1900,1,2,1
0,4458,2560,-1,2,1
0,4459,400,1,2,1
0,4460,2350,-1,2,1
0,4461,3720,1,2,1
0,4462,680,-1,2,1
0,4463,2980,1,2,1
0,4464,10610,-1,2,1
0,4465,4300,1,2,1
0,4466,6870,-1,2,1
0,4467,9020,1,2,1
0,4468,5580,-1,2,1
0,4469,4460,-1,2,1
0,4470,3330,-1,2,1
0,4471,3380,1,2,1
0,4472,1430,1,2,1
0,4473,3220,1,2,1
0,4474,2540,-1,2,1
0,4475,3420,1,2,1
0,4476,370,-1,2,1
0,4477,2590,-1,2,1
0,4478,440,1,2,1
0,4479,1050,1,2,1
0,4480,2440,-1,2,1
0,4481,1920,-1,2,1
0,4482,2850,1,2,1
0,4483,2300,1,2,1
0,4484,6720,-1,2,1
0,4485,1710,1,2,1
0,4486,1480,-1,2,1
0,4487,7610,1,2,1
0,4488,840,-1,2,1
0,4489,850,-1,2,1
0,4490,1230,-1,2,1
0,4491,3510,1,2,1
0,4492,5190,-1,2,1
0,4493,3180,-1,2,1
0,4494,12140,1,2,1
0,4495,1870,1,2,1
0,4496,1790,1,2,1
0,4497,840,1,2,1
0,4498,4510,1,2,1
0,4499,1710,-1,2,1
0,4500,4060,-1,2,1
0,4501,2440,-1,2,1
0,4502,1710,1,2,1
0,4503,4730,1,2,1
0,4504,900,1,2,1
0,4505,5330,-1,2,1
0,4506,2480,-1,2,1
0,4507,6400,-1,2,1
0,4508,2600,1,2,1
0,4509,5290,-1,2,1
0,4510,1870,-1,2,1
0,4511,2560,-1,2,1
0,4512,4750,1,2,1
0,4513,460,-1,2,1
0,4514,4030,-1,2,1
0,4515,2990,-1,2,1
0,4516,2840,1,2,1
0,4517,1630,-1,2,1
0,4518,2780,-1,2,1
0,4519,6150,-1,2,1
0,4520,1320,-1,2,1
0,4521,2470,1,2,1
0,4522,2170,1,2,1
0,4523,2500,-1,2,1
0,4524,730,-1,2,1
0,4525,700,1,2,1
0,4526,690,-1,2,1
0,4527,2560,-1,2,1
0,4528,3460,-1,2,1
0,4529,1480,-1,2,1
0,4530,1110,1,2,1
0,4531,790,-1,2,1
0,4532,2280,1,2,1
0,4533,910,-1,2,1
0,4534,11870,1,2,1
0,4535,3190,-1,2,1
0,4536,1240,1,2,1
0,4537,2590,-1,2,1
0,4538,1420,1,2,1
0,4539,1660,1,2,1
0,4540,9290,-1,2,1
0,4541,4030,1,2,1
0,4542,1920,-1,2,1
0,4543,10530,-1,2,1
0,4544,4460,-1,2,1
0,4545,4670,1,2,1
0,4546,2150,1,2,1
0,4547,1170,-1,2,1
0,4548,2530,-1,2,1
0,4549,6100,-1,2,1
0,4550,3000,1,2,1
0,4551,2200,-1,2,1
0,4552,2920,-1,2,1
0,4553,1180,1,2,1
0,4554,5180,1,2,1
0,4555,1290,-1,2,1
0,4556,1030,1,2,1
0,4557,670,1,2,1
0,4558,1800,1,2,1
0,4559,2780,1,2,1
0,4560,2220,1,2,1
0,4561,3170,-1,2,1
0,4562,12080,1,2,1
0,4563,1280,1,2,1
0,4564,9270,-1,2,1
0,4565,950,-1,2,1
0,4566,890,-1,2,1
0,4567,500,-1,2,1
0,4568,1860,-1,2,1
0,4569,4050,1,2,1
0,4570,2920,-1,2,1
0,4571,7420,1,2,1
0,4572,3350,1,2,1
0,4573,3210,-1,2,1
0,4574,7470,-1,2,1
0,4575,1240,1,2,1
0,4576,6280,1,2,1
0,4577,5790,-1,2,1
0,4578,3550,-1,2,1
0,4579,3400,-1,2,1
0,4580,1500,-1,2,1
0,4581,1430,-1,2,1
0,4582,16560,-1,2,1
0,4583,3760,-1,2,1
0,4584,3030,1,2,1
0,4585,7610,-1,2,1
0,4586,1520,1,2,1
0,4587,990,-1,2,1
0,4588,1570,-1,2,1
0,4589,3710,-1,2,1
0,4590,2680,1,2,1
0,4591,1050,-1,2,1
0,4592,1390,1,2,1
0,4593,4610,-1,2,1
0,4594,2220,-1,2,1
0,4595,1310,-1,2,1
0,4596,2010,-1,2,1
0,4597,2420,-1,2,1
0,4598,3790,1,2,1
0,4599,1130,1,2,1
0,4600,1220,-1,2,1
0,4601,2630,-1,2,1
0,4602,2170,-1,2,1
0,4603,8580,1,2,1
0,4604,2480,-1,2,1
0,4605,2250,-1,2,1
0,4606,4140,1,2,1
0,4607,1080,1,2,1
0,4608,2500,-1,2,1
0,4609,1000,1,2,1
0,4610,1250,-1,2,1
0,4611,2540,-1,2,1
0,4612,780,1,2,1
0,4613,3710,1,2,1
0,4614,2320,-1,2,1
0,4615,980,-1,2,1
0,4616,1630,-1,2,1
0,4617,910,-1,2,1
0,4618,5660,-1,2,1
0,4619,2740,-1,2,1
0,4620,880,-1,2,1
0,4621,450,1,2,1
0,4622,1490,1,2,1
0,4623,2530,-1,2,1
0,4624,5630,-1,2,1
0,4625,5310,-1,2,1
0,4626,5930,-1,2,1
0,4627,630,-1,2,1
0,4628,500,-1,2,1
0,4629,1160,-1,2,1
0,4630,3230,1,2,1
0,4631,550,-1,2,1
0,4632,1630,-1,2,1
0,4633,550,-1,2,1
0,4634,3710,1,2,1
0,4635,4350,1,2,1
0,4636,3630,1,2,1
0,4637,12850,-1,2,1
0,4638,2040,1,2,1
0,4639,1800,-1,2,1
0,4640,1580,-1,2,1
0,4641,2270,-1,2,1
0,4642,740,-1,2,1
0,4643,840,-1,2,1
0,4644,2700,-1,2,1
0,4645,2660,1,2,1
0,4646,930,-1,2,1
0,4647,4960,-1,2,1
0,4648,2510,-1,2,1
0,4649,4420,-1,2,1
0,4650,1050,-1,2,1
0,4651,1780,1,2,1
0,4652,3500,1,2,1
0,4653,8140,1,2,1
0,4654,1970,1,2,1
0,4655,5930,-1,2,1
0,4656,2010,1,2,1
0,4657,3000,1,2,1
0,4658,1400,-1,2,1
0,4659,930,-1,2,1
0,4660,940,1,2,1
0,4661,2220,-1,2,1
0,4662,5420,-1,2,1
0,4663,1620,-1,2,1
0,4664,1930,1,2,1
0,4665,690,-1,2,1
0,4666,850,-1,2,1
0,4667,4470,-1,2,1
0,4668,2280,-1,2,1
0,4669,3970,-1,2,1
0,4670,2570,1,2,1
0,4671,530,-1,2,1
0,4672,2570,-1,2,1
0,4673,2950,1,2,1
0,4674,830,-1,2,1
0,4675,1720,-1,2,1
0,4676,1830,-1,2,1
0,4677,7470,1,2,1
0,4678,2600,-1,2,1
0,4679,7200,-1,2,1
0,4680,3680,-1,2,1
0,4681,1320,-1,2,1
0,4682,1180,1,2,1
0,4683,2930,-1,2,1
0,4684,2790,1,2,1
0,4685,3810,1,2,1
0,4686,2670,-1,2,1
0,4687,2020,-1,2,1
0,4688,1810,-1,2,1
0,4689,560,-1,2,1
0,4690,5850,1,2,1
0,4691,4960,-1,2,1
0,4692,5350,-1,2,1
0,4693,3830,-1,2,1
0,4694,2590,-1,2,1
0,4695,2460,1,2,1
0,4696,3590,-1,2,1
0,4697,2870,1,2,1
0,4698,3420,-1,2,1
0,4699,2750,-1,2,1
0,4700,1160,1,2,1
0,4701,2300,-1,2,1
0,4702,650,-1,2,1
0,4703,3330,1,2,1
0,4704,2640,1,2,1
0,4705,570,-1,2,1
0,4706,3050,1,2,1
0,4707,750,-1,2,1
0,4708,2400,1,2,1
0,4709,1620,1,2,1
0,4710,1800,-1,2,1
0,4711,1570,-1,2,1
0,4712,1450,-1,2,1
0,4713,2900,-1,2,1
0,4714,2090,-1,2,1
0,4715,3140,-1,2,1
0,4716,470,-1,2,1
0,4717,7890,-1,2,1
0,4718,2960,-1,2,1
0,4719,1030,-1,2,1
0,4720,1330,-1,2,1
0,4721,6460,1,2,1
0,4722,2030,-1,2,1
0,4723,4830,1,2,1
0,4724,3400,1,2,1
0,4725,620,-1,2,1
0,4726,1750,-1,2,1
0,4727,3440,-1,2,1
0,4728,550,-1,2,1
0,4729,2310,-1,2,1
0,4730,2890,1,2,1
0,4731,1060,-1,2,1
0,4732,2310,-1,2,1
0,4733,1250,-1,2,1
0,4734,5220,-1,2,1
0,4735,3880,1,2,1
0,4736,1680,-1,2,1
0,4737,1740,1,2,1
0,4738,3690,-1,2,1
0,4739,3830,-1,2,1
0,4740,6510,1,2,1
0,4741,7020,1,2,1
0,4742,2890,-1,2,1
0,4743,710,1,2,1
0,4744,4130,1,2,1
0,4745,10300,1,2,1
0,4746,3140,-1,2,1
0,4747,3340,1,2,1
0,4748,1150,1,2,1
0,4749,3980,-1,2,1
0,4750,1670,-1,2,1
0,4751,970,1,2,1
0,4752,1580,1,2,1
0,4753,590,1,2,1
0,4754,3040,1,2,1
0,4755,460,-1,2,1
0,4756,1150,-1,2,1
0,4757,770,1,2,1
0,4758,2370,-1,2,1
0,4759,3080,1,2,1
0,4760,970,-1,2,1
0,4761,5840,-1,2,1
0,4762,4660,-1,2,1
0,4763,1260,1,2,1
0,4764,1270,-1,2,1
0,4765,650,-1,2,1
0,4766,15300,-1,2,1
0,4767,3320,1,2,1
0,4768,3270,1,2,1
0,4769,4440,1,2,1
0,4770,4530,-1,2,1
0,4771,2960,-1,2,1
0,4772,6560,-1,2,1
0,4773,3290,1,2,1
0,4774,950,-1,2,1
0,4775,380,1,2,1
0,4776,1320,-1,2,1
0,4777,1020,1,2,1
0,4778,1100,-1,2,1
0,4779,1990,-1,2,1
0,4780,3560,-1,2,1
0,4781,3170,-1,2,1
0,4782,1120,1,2,1
0,4783,6030,-1,2,1
0,4784,1100,-1,2,1
0,4785,1220,1,2,1
0,4786,5560,-1,2,1
0,4787,3090,-1,2,1
0,4788,4230,-1,2,1
0,4789,1730,1,2,1
0,4790,4850,1,2,1
0,4791,2640,-1,2,1
0,4792,850,1,2,1
0,4793,6550,1,2,1
0,4794,6190,1,2,1
0,4795,7620,1,2,1
0,4796,3450,-1,2,1
0,4797,3580,-1,2,1
0,4798,3470,-1,2,1
0,4799,2340,-1,2,1
0,4800,1380,1,2,2
0,4801,2130,1,2,2
0,4802,2590,1,2,2
0,4803,740,1,2,2
0,4804,11200,-1,2,2
0,4805,2630,-1,2,2
0,4806,820,1,2,2
0,4807,860,1,2,2
0,4808,2620,1,2,2
0,4809,1530,1,2,2
0,4810,1110,-1,2,2
0,4811,2780,-1,2,2
0,4812,1850,-1,2,2
0,4813,3230,-1,2,2
0,4814,3000,1,2,2
0,4815,3000,-1,2,2
0,4816,6290,-1,2,2
0,4817,4940,-1,2,2
0,4818,2900,1,2,2
0,4819,900,-1,2,2
0,4820,3140,1,2,2
0,4821,3400,1,2,2
0,4822,1530,1,2,2
0,4823,1090,-1,2,2
0,4824,1110,1,2,2
0,4825,430,-1,2,2
0,4826,1950,1,2,2
0,4827,1220,1,2,2
0,4828,7740,-1,2,2
0,4829,2600,1,2,2
0,4830,4030,-1,2,2
0,4831,5980,1,2,2
0,4832,1140,1,2,2
0,4833,3400,-1,2,2
0,4834,1150,-1,2,2
0,4835,6220,1,2,2
0,4836,980,-1,2,2
0,4837,3840,1,2,2
0,4838,1280,1,2,2
0,4839,1940,1,2,2
0,4840,1550,-1,2,2
0,4841,560,-1,2,2
0,4842,2290,1,2,2
0,4843,900,-1,2,2
0,4844,8470,1,2,2
0,4845,2230,1,2,2
0,4846,620,-1,2,2
0,4847,3890,-1,2,2
0,4848,7780,1,2,2
0,4849,9790,-1,2,2
0,4850,6320,1,2,2
0,4851,2440,1,2,2
0,4852,4490,-1,2,2
0,4853,870,1,2,2
0,4854,2210,-1,2,2
0,4855,1460,1,2,2
0,4856,3490,-1,2,2
0,4857,9060,1,2,2
0,4858,950,1,2,2
0,4859,550,-1,2,2
0,4860,2690,1,2,2
0,4861,2050,1,2,2
0,4862,2080,-1,2,2
0,4863,620,-1,2,2
0,4864,5890,1,2,2
0,4865,3270,1,2,2
0,4866,2460,-1,2,2
0,4867,2700,-1,2,2
0,4868,1490,-1,2,2
0,4869,4900,-1,2,2
0,4870,6940,1,2,2
0,4871,1980,1,2,2
0,4872,16120,1,2,2
0,4873,2900,1,2,2
0,4874,4710,1,2,2
0,4875,3780,1,2,2
0,4876,570,-1,2,2
0,4877,2280,-1,2,2
0,4878,2330,-1,2,2
0,4879,4410,-1,2,2
0,4880,1880,1,2,2
0,4881,940,-1,2,2
0,4882,740,-1,2,2
0,4883,2160,1,2,2
0,4884,2800,-1,2,2
0,4885,1870,-1,2,2
0,4886,2490,1,2,2
0,4887,1010,-1,2,2
0,4888,8200,-1,2,2
0,4889,4170,-1,2,2
0,4890,1880,1,2,2
0,4891,1820,-1,2,2
0,4892,5330,1,2,2
0,4893,3710,-1,2,2
0,4894,1950,1,2,2
0,4895,1950,1,2,2
0,4896,1220,1,2,2
0,4897,6330,1,2,2
0,4898,1180,1,2,2
0,4899,4570,-1,2,2
0,4900,3610,-1,2,2
0,4901,2270,1,2,2
0,4902,1750,1,2,2
0,4903,2030,1,2,2
0,4904,5150,1,2,2
0,4905,440,-1,2,2
0,4906,1490,-1,2,2
0,4907,930,1,2,2
0,4908,6400,1,2,2
0,4909,1650,1,2,2
0,4910,9950,1,2,2
0,4911,7000,1,2,2
0,4912,3390,-1,2,2
0,4913,4160,-1,2,2
0,4914,1200,-1,2,2
0,4915,1060,1,2,2
0,4916,3920,-1,2,2
0,4917,2140,-1,2,2
0,4918,930,-1,2,2
0,4919,3510,-1,2,2
0,4920,4330,-1,2,2
0,4921,990,-1,2,2
0,4922,360,1,2,2
0,4923,1670,-1,2,2
0,4924,920,-1,2,2
0,4925,1670,1,2,2
0,4926,790,1,2,2
0,4927,2280,1,2,2
0,4928,1510,1,2,2
0,4929,2100,1,2,2
0,4930,4180,-1,2,2
0,4931,3300,1,2,2
0,4932,1400,1,2,2
0,4933,910,1,2,2
0,4934,3480,1,2,2
0,4935,3100,1,2,2
0,4936,880,1,2,2
0,4937,2360,-1,2,2
0,4938,1090,1,2,2
0,4939,4180,1,2,2
0,4940,6490,1,2,2
0,4941,630,1,2,2
0,4942,3840,-1,2,2
0,4943,2680,-1,2,2
0,4944,3060,1,2,2
0,4945,700,1,2,2
0,4946,3030,1,2,2
0,4947,1660,1,2,2
0,4948,1500,1,2,2
0,4949,4220,-1,2,2
0,4950,2670,1,2,2
0,4951,710,-1,2,2
0,4952,16010,1,2,2
0,4953,500,-1,2,2
0,4954,6520,1,2,2
0,4955,3620,1,2,2
0,4956,4510,-1,2,2
0,4957,1730,1,2,2
0,4958,600,1,2,2
0,4959,2750,-1,2,2
0,4960,1110,1,2,2
0,4961,4810,-1,2,2
0,4962,3800,-1,2,2
0,4963,2070,-1,2,2
0,4964,7340,1,2,2
0,4965,290,1,2,2
0,4966,2910,1,2,2
0,4967,1300,1,2,2
0,4968,3840,-1,2,2
0,4969,1490,1,2,2
0,4970,1160,1,2,2
0,4971,1650,-1,2,2
0,4972,4870,1,2,2
0,4973,5840,1,2,2
0,4974,2100,-1,2,2
0,4975,1370,-1,2,2
0,4976,2770,1,2,2
0,4977,930,-1,2,2
0,4978,2120,1,2,2
0,4979,7030,1,2,2
0,4980,10710,1,2,2
0,4981,8930,-1,2,2
0,4982,1980,-1,2,2
0,4983,4190,-1,2,2
0,4984,7720,1,2,2
0,4985,8070,-1,2,2
0,4986,1850,1,2,2
0,4987,7570,-1,2,2
0,4988,6850,1,2,2
0,4989,1710,-1,2,2
0,4990,5650,-1,2,2
0,4991,1490,1,2,2
0,4992,2370,1,2,2
0,4993,3380,-1,2,2
0,4994,1830,-1,2,2
0,4995,4160,1,2,2
0,4996,1810,-1,2,2
0,4997,1540,1,2,2
0,4998,1380,-1,2,2
0,4999,2900,-1,2,2
0,5000,1960,-1,2,2
0,5001,4010,-1,2,2
0,5002,1240,-1,2,2
0,5003,2680,1,2,2
0,5004,1880,-1,2,2
0,5005,2530,-1,2,2
0,5006,4210,1,2,2
0,5007,960,-1,2,2
0,5008,1450,1,2,2
0,5009,420,1,2,2
0,5010,1680,1,2,2
0,5011,5070,-1,2,2
0,5012,2720,1,2,2
0,5013,3480,-1,2,2
0,5014,5240,1,2,2
0,5015,1450,-1,2,2
0,5016,1860,-1,2,2
0,5017,2420,-1,2,2
0,5018,2780,-1,2,2
0,5019,16970,1,2,2
0,5020,3580,1,2,2
0,5021,1360,1,2,2
0,5022,5610,1,2,2
0,5023,1560,1,2,2
0,5024,2990,1,2,2
0,5025,1810,-1,2,2
0,5026,3320,-1,2,2
0,5027,6500,-1,2,2
0,5028,1750,1,2,2
0,5029,1840,-1,2,2
0,5030,1490,1,2,2
0,5031,2610,1,2,2
0,5032,650,1,2,2
0,5033,1800,-1,2,2
0,5034,1040,-1,2,2
0,5035,4510,-1,2,2
0,5036,1000,-1,2,2
0,5037,810,-1,2,2
0,5038,3010,1,2,2
0,5039,890,1,2,2
0,5040,2320,1,2,2
0,5041,1460,-1,2,2
0,5042,4560,1,2,2
0,5043,3060,-1,2,2
0,5044,980,-1,2,2
0,5045,880,-1,2,2
0,5046,1250,-1,2,2
0,5047,640,-1,2,2
0,5048,5750,-1,2,2
0,5049,1620,-1,2,2
0,5050,1690,1,2,2
0,5051,770,1,2,2
0,5052,1760,-1,2,2
0,5053,1180,1,2,2
0,5054,7020,1,2,2
0,5055,650,1,2,2
0,5056,9680,1,2,2
0,5057,2030,-1,2,2
0,5058,710,-1,2,2
0,5059,3360,-1,2,2
0,5060,920,1,2,2
0,5061,3280,1,2,2
0,5062,4010,-1,2,2
0,5063,2010,1,2,2
0,5064,940,1,2,2
0,5065,1490,-1,2,2
0,5066,2340,1,2,2
0,5067,3110,-1,2,2
0,5068,1780,-1,2,2
0,5069,2230,-1,2,2
0,5070,670,-1,2,2
0,5071,800,-1,2,2
0,5072,3260,1,2,2
0,5073,10230,1,2,2
0,5074,6460,1,2,2
0,5075,1730,-1,2,2
0,5076,3680,-1,2,2
0,5077,8830,-1,2,2
0,5078,11630,-1,2,2
0,5079,4610,-1,2,2
0,5080,3760,-1,2,2
0,5081,3460,1,2,2
0,5082,3020,-1,2,2
0,5083,2380,1,2,2
0,5084,4810,-1,2,2
0,5085,1090,-1,2,2
0,5086,4250,1,2,2
0,5087,2260,1,2,2
0,5088,5470,1,2,2
0,5089,650,1,2,2
0,5090,4810,-1,2,2
0,5091,920,1,2,2
0,5092,4230,-1,2,2
0,5093,2050,-1,2,2
0,5094,1080,1,2,2
0,5095,1340,-1,2,2
0,5096,1100,1,2,2
0,5097,1190,-1,2,2
0,5098,3290,-1,2,2
0,5099,3470,1,2,2
0,5100,1590,-1,2,3
0,5101,5140,-1,2,3
0,5102,2480,-1,2,3
0,5103,770,1,2,3
0,5104,3250,-1,2,3
0,5105,2840,-1,2,3
0,5106,1050,1,2,3
0,5107,810,-1,2,3
0,5108,5520,-1,2,3
0,5109,2460,-1,2,3
0,5110,1620,-1,2,3
0,5111,620,1,2,3
0,5112,4220,1,2,3
0,5113,2740,-1,2,3
0,5114,1710,1,2,3
0,5115,3640,1,2,3
0,5116,710,-1,2,3
0,5117,4790,1,2,3
0,5118,770,1,2,3
0,5119,2260,1,2,3
0,5120,4700,1,2,3
0,5121,4480,1,2,3
0,5122,4580,1,2,3
0,5123,700,1,2,3
0,5124,4740,1,2,3
0,5125,1860,1,2,3
0,5126,1310,-1,2,3
0,5127,5110,1,2,3
0,5128,2440,1,2,3
0,5129,6640,-1,2,3
0,5130,8090,1,2,3
0,5131,1020,-1,2,3
0,5132,1650,1,2,3
0,5133,5900,1,2,3
0,5134,6050,1,2,3
0,5135,1220,1,2,3
0,5136,790,1,2,3
0,5137,1490,1,2,3
0,5138,700,-1,2,3
0,5139,1200,-1,2,3
0,5140,4850,1,2,3
0,5141,1260,-1,2,3
0,5142,6020,-1,2,3
0,5143,1330,1,2,3
0,5144,1970,-1,2,3
0,5145,4730,-1,2,3
0,5146,2230,-1,2,3
0,5147,610,-1,2,3
0,5148,3230,-1,2,3
0,5149,3160,1,2,3
0,5150,6850,1,2,3
0,5151,1760,1,2,3
0,5152,1990,1,2,3
0,5153,5680,-1,2,3
0,5154,1120,1,2,3
0,5155,2720,1,2,3
0,5156,2000,1,2,3
0,5157,1890,1,2,3
0,5158,2670,-1,2,3
0,5159,400,-1,2,3
0,5160,1530,1,2,3
0,5161,880,-1,2,3
0,5162,3840,1,2,3
0,5163,5330,-1,2,3
0,5164,2840,1,2,3
0,5165,910,-1,2,3
0,5166,2100,1,2,3
0,5167,2210,1,2,3
0,5168,4220,1,2,3
0,5169,6770,1,2,3
0,5170,2170,-1,2,3
0,5171,2010,1,2,3
0,5172,920,-1,2,3
0,5173,650,1,2,3
0,5174,450,-1,2,3
0,5175,1910,1,2,3
0,5176,5140,1,2,3
0,5177,11360,1,2,3
0,5178,2930,-1,2,3
0,5179,3890,1,2,3
0,5180,2340,1,2,3
0,5181,3800,1,2,3
0,5182,1290,1,2,3
0,5183,2330,1,2,3
0,5184,3190,-1,2,3
0,5185,1110,-1,2,3
0,5186,1450,1,2,3
0,5187,1430,-1,2,3
0,5188,1040,1,2,3
0,5189,840,-1,2,3
0,5190,1350,1,2,3
0,5191,920,1,2,3
0,5192,4060,-1,2,3
0,5193,1250,1,2,3
0,5194,3450,1,2,3
0,5195,930,1,2,3
0,5196,2580,1,2,3
0,5197,4200,1,2,3
0,5198,2310,1,2,3
0,5199,1460,1,2,3
0,5200,2270,1,2,3
0,5201,1540,1,2,3
0,5202,3970,1,2,3
0,5203,1860,-1,2,3
0,5204,2620,-1,2,3
0,5205,630,-1,2,3
0,5206,4060,-1,2,3
0,5207,1310,-1,2,3
0,5208,950,1,2,3
0,5209,3140,1,2,3
0,5210,3970,1,2,3
0,5211,2540,1,2,3
0,5212,14540,1,2,3
0,5213,7880,1,2,3
0,5214,4800,1,2,3
0,5215,1780,1,2,3
0,5216,1820,1,2,3
0,5217,5080,1,2,3
0,5218,1420,1,2,3
0,5219,2480,-1,2,3
0,5220,5650,1,2,3
0,5221,370,-1,2,3
0,5222,4290,1,2,3
0,5223,3260,-1,2,3
0,5224,3400,-1,2,3
0,5225,530,-1,2,3
0,5226,320,-1,2,3
0,5227,4110,-1,2,3
0,5228,450,-1,2,3
0,5229,4580,1,2,3
0,5230,310,-1,2,3
0,5231,2900,1,2,3
0,5232,2930,1,2,3
0,5233,2390,1,2,3
0,5234,2060,1,2,3
0,5235,6090,1,2,3
0,5236,1140,1,2,3
0,5237,3300,-1,2,3
0,5238,7220,1,2,3
0,5239,970,-1,2,3
0,5240,2370,1,2,3
0,5241,3920,1,2,3
0,5242,2100,1,2,3
0,5243,2790,1,2,3
0,5244,1290,1,2,3
0,5245,1500,1,2,3
0,5246,1440,1,2,3
0,5247,1410,-1,2,3
0,5248,9280,1,2,3
0,5249,6440,1,2,3
0,5250,1210,1,2,3
0,5251,3250,1,2,3
0,5252,6520,-1,2,3
0,5253,870,1,2,3
0,5254,2460,-1,2,3
0,5255,4850,-1,2,3
0,5256,3720,1,2,3
0,5257,3070,-1,2,3
0,5258,2370,-1,2,3
0,5259,1520,1,2,3
0,5260,8140,1,2,3
0,5261,1550,1,2,3
0,5262,560,-1,2,3
0,5263,3660,-1,2,3
0,5264,3840,1,2,3
0,5265,590,1,2,3
0,5266,1260,-1,2,3
0,5267,1980,1,2,3
0,5268,3900,1,2,3
0,5269,970,1,2,3
0,5270,2810,-1,2,3
0,5271,1160,-1,2,3
0,5272,3560,1,2,3
0,5273,1380,-1,2,3
0,5274,2430,1,2,3
0,5275,570,-1,2,3
0,5276,4030,1,2,3
0,5277,2100,-1,2,3
0,5278,940,-1,2,3
0,5279,2500,1,2,3
0,5280,3650,-1,2,3
0,5281,1230,1,2,3
0,5282,970,1,2,3
0,5283,2310,-1,2,3
0,5284,2750,1,2,3
0,5285,1400,1,2,3
0,5286,1100,-1,2,3
0,5287,1310,1,2,3
0,5288,1340,-1,2,3
0,5289,1320,-1,2,3
0,5290,2750,-1,2,3
0,5291,660,-1,2,3
0,5292,2690,-1,2,3
0,5293,800,-1,2,3
0,5294,3120,-1,2,3
0,5295,1820,1,2,3
0,5296,3400,1,2,3
0,5297,4480,1,2,3
0,5298,1090,1,2,3
0,5299,3030,1,2,3
0,5300,1650,-1,2,3
0,5301,1400,-1,2,3
0,5302,420,-1,2,3
0,5303,3440,-1,2,3
0,5304,3340,1,2,3
0,5305,1650,-1,2,3
0,5306,6850,1,2,3
0,5307,3510,1,2,3
0,5308,2370,-1,2,3
0,5309,2990,-1,2,3
0,5310,950,1,2,3
0,5311,4010,1,2,3
0,5312,430,-1,2,3
0,5313,820,-1,2,3
0,5314,2630,1,2,3
0,5315,1250,1,2,3
0,5316,2740,1,2,3
0,5317,4120,-1,2,3
0,5318,2000,-1,2,3
0,5319,4880,1,2,3
0,5320,5320,-1,2,3
0,5321,1360,1,2,3
0,5322,6690,-1,2,3
0,5323,1110,-1,2,3
0,5324,2710,-1,2,3
0,5325,2120,1,2,3
0,5326,3200,1,2,3
0,5327,460,1,2,3
0,5328,1360,-1,2,3
0,5329,1030,1,2,3
0,5330,1170,1,2,3
0,5331,3990,1,2,3
0,5332,2720,-1,2,3
0,5333,3610,1,2,3
0,5334,1070,-1,2,3
0,5335,260,-1,2,3
0,5336,8180,-1,2,3
0,5337,1590,-1,2,3
0,5338,2590,1,2,3
0,5339,1530,1,2,3
0,5340,980,1,2,3
0,5341,4070,1,2,3
0,5342,890,-1,2,3
0,5343,1060,-1,2,3
0,5344,3310,-1,2,3
0,5345,510,1,2,3
0,5346,760,1,2,3
0,5347,2220,1,2,3
0,5348,5030,1,2,3
0,5349,5490,1,2,3
0,5350,14480,1,2,3
0,5351,3170,-1,2,3
0,5352,1940,1,2,3
0,5353,2810,1,2,3
0,5354,3130,-1,2,3
0,5355,5230,-1,2,3
0,5356,2830,-1,2,3
0,5357,5070,1,2,3
0,5358,750,1,2,3
0,5359,1890,1,2,3
0,5360,390,-1,2,3
0,5361,3160,-1,2,3
0,5362,2900,-1,2,3
0,5363,2720,1,2,3
0,5364,1450,1,2,3
0,5365,4150,-1,2,3
0,5366,2770,1,2,3
0,5367,1400,1,2,3
0,5368,3040,1,2,3
0,5369,7450,1,2,3
0,5370,8140,-1,2,3
0,5371,1460,-1,2,3
0,5372,4630,1,2,3
0,5373,1610,1,2,3
0,5374,1460,1,2,3
0,5375,2460,1,2,3
0,5376,1650,1,2,3
0,5377,670,1,2,3
0,5378,5270,-1,2,3
0,5379,1690,-1,2,3
0,5380,620,-1,2,3
0,5381,1350,1,2,3
0,5382,3140,-1,2,3
0,5383,2820,-1,2,3
0,5384,1920,1,2,3
0,5385,5570,-1,2,3
0,5386,440,1,2,3
0,5387,730,-1,2,3
0,5388,970,1,2,3
0,5389,3220,1,2,3
0,5390,12500,-1,2,3
0,5391,6010,1,2,3
0,5392,1290,1,2,3
0,5393,3050,1,2,3
0,5394,2640,1,2,3
0,5395,940,1,2,3
0,5396,2420,1,2,3
0,5397,580,-1,2,3
0,5398,9970,1,2,3
0,5399,320,1,2,3
0,5400,1250,1,3,0
0,5401,2970,-1,3,0
0,5402,490,-1,3,0
0,5403,2290,-1,3,0
0,5404,1400,1,3,0
0,5405,1700,1,3,0
0,5406,1520,-1,3,0
0,5407,6830,1,3,0
0,5408,2920,-1,3,0
0,5409,13140,-1,3,0
0,5410,1980,-1,3,0
0,5411,3370,-1,3,0
0,5412,760,1,3,0
0,5413,2360,-1,3,0
0,5414,1500,-1,3,0
0,5415,2320,1,3,0
0,5416,630,-1,3,0
0,5417,1570,-1,3,0
0,5418,3670,-1,3,0
0,5419,820,-1,3,0
0,5420,2110,1,3,0
0,5421,1600,1,3,0
0,5422,4470,-1,3,0
0,5423,1360,-1,3,0
0,5424,630,-1,3,0
0,5425,3010,-1,3,0
0,5426,1710,1,3,0
0,5427,5660,-1,3,0
0,5428,5070,-1,3,0
0,5429,4050,-1,3,0
0,5430,940,1,3,0
0,5431,3770,-1,3,0
0,5432,1510,-1,3,0
0,5433,1160,-1,3,0
0,5434,3150,1,3,0
0,5435,2300,-1,3,0
0,5436,4260,-1,3,0
0,5437,2040,-1,3,0
0,5438,3190,-1,3,0
0,5439,1610,-1,3,0
0,5440,1600,-1,3,0
0,5441,740,-1,3,0
0,5442,1140,-1,3,0
0,5443,2450,1,3,0
0,5444,1580,-1,3,0
0,5445,3350,-1,3,0
0,5446,1170,-1,3,0
0,5447,680,-1,3,0
0,5448,4970,-1,3,0
0,5449,1380,-1,3,0
0,5450,3680,-1,3,0
0,5451,2940,-1,3,0
0,5452,990,-1,3,0
0,5453,1170,1,3,0
0,5454,1040,-1,3,0
0,5455,7370,-1,3,0
0,5456,3030,-1,3,0
0,5457,1290,-1,3,0
0,5458,1130,-1,3,0
0,5459,3160,-1,3,0
0,5460,1080,-1,3,0
0,5461,1390,-1,3,0
0,5462,2570,1,3,0
0,5463,2100,-1,3,0
0,5464,4150,-1,3,0
0,5465,3060,-1,3,0
0,5466,2760,1,3,0
0,5467,530,-1,3,0
0,5468,2700,-1,3,0
0,5469,4250,-1,3,0
0,5470,5820,-1,3,0
0,5471,2010,1,3,0
0,5472,5480,-1,3,0
0,5473,3420,-1,3,0
0,5474,610,-1,3,0
0,5475,1810,1,3,0
0,5476,2060,-1,3,0
0,5477,6650,-1,3,0
0,5478,1460,-1,3,0
0,5479,1290,1,3,0
0,5480,1860,-1,3,0
0,5481,5950,-1,3,0
0,5482,2940,-1,3,0
0,5483,580,-1,3,0
0,5484,6480,-1,3,0
0,5485,680,-1,3,0
0,5486,4750,1,3,0
0,5487,1030,-1,3,0
0,5488,2540,-1,3,0
0,5489,2390,-1,3,0
0,5490,1890,-1,3,0
0,5491,4930,-1,3,0
0,5492,810,-1,3,0
0,5493,2890,1,3,0
0,5494,1340,-1,3,0
0,5495,1600,1,3,0
0,5496,1710,1,3,0
0,5497,1230,1,3,0
0,5498,1050,1,3,0
0,5499,1670,1,3,0
0,5500,1590,1,3,0
0,5501,3820,-1,3,0
0,5502,2020,-1,3,0
0,5503,2370,-1,3,0
0,5504,1360,-1,3,0
0,5505,1430,-1,3,0
0,5506,960,1,3,0
0,5507,1370,-1,3,0
0,5508,1240,-1,3,0
0,5509,580,1,3,0
0,5510,2760,-1,3,0
