parcode,trial,rt,choice,item_left,item_right
0,0,2380,1,0,0
0,1,1660,1,0,0
0,2,3000,1,0,0
0,3,2870,1,0,0
0,4,5760,1,0,0
0,5,8990,1,0,0
0,6,1140,-1,0,0
0,7,1370,1,0,0
0,8,770,1,0,0
0,9,500,1,0,0
0,10,3410,1,0,0
0,11,2700,-1,0,0
0,12,3860,1,0,0
0,13,5440,-1,0,0
0,14,2520,-1,0,0
0,15,2040,-1,0,0
0,16,830,-1,0,0
0,17,6440,-1,0,0
0,18,1360,-1,0,0
0,19,820,1,0,0
0,20,2680,-1,0,0
0,21,6110,-1,0,0
0,22,1090,1,0,0
0,23,1260,1,0,0
0,24,640,1,0,0
0,25,5520,1,0,0
0,26,1250,1,0,0
0,27,1400,1,0,0
0,28,810,1,0,0
0,29,3450,-1,0,0
0,30,940,-1,0,0
0,31,350,-1,0,0
0,32,7970,-1,0,0
0,33,2750,1,0,0
0,34,2170,-1,0,0
0,35,1220,1,0,0
0,36,1800,1,0,0
0,37,7620,1,0,0
0,38,5060,-1,0,0
0,39,9210,1,0,0
0,40,460,1,0,0
0,41,2050,1,0,0
0,42,1980,-1,0,0
0,43,1990,-1,0,0
0,44,3710,1,0,0
0,45,1190,1,0,0
0,46,14610,1,0,0
0,47,1860,-1,0,0
0,48,5910,1,0,0
0,49,740,-1,0,0
0,50,2900,-1,0,0
0,51,920,-1,0,0
0,52,3290,-1,0,0
0,53,760,-1,0,0
0,54,1460,-1,0,0
0,55,5360,-1,0,0
0,56,2070,1,0,0
0,57,5340,-1,0,0
0,58,2510,1,0,0
0,59,7300,1,0,0
0,60,2970,-1,0,0
0,61,7520,1,0,0
0,62,9950,-1,0,0
0,63,510,1,0,0
0,64,1060,1,0,0
0,65,4060,1,0,0
0,66,1530,-1,0,0
0,67,560,1,0,0
0,68,2900,1,0,0
0,69,2140,1,0,0
0,70,2660,-1,0,0
0,71,9560,-1,0,0
0,72,790,-1,0,0
0,73,2510,1,0,0
0,74,2910,1,0,0
0,75,930,-1,0,0
0,76,300,1,0,0
0,77,2440,1,0,0
0,78,4920,-1,0,0
0,79,3850,-1,0,0
0,80,1060,-1,0,0
0,81,2090,-1,0,0
0,82,880,1,0,0
0,83,1670,-1,0,0
0,84,1260,1,0,0
0,85,2630,-1,0,0
0,86,8220,1,0,0
0,87,4080,-1,0,0
0,88,830,-1,0,0
0,89,2850,-1,0,0
0,90,1100,-1,0,0
0,91,3010,-1,0,0
0,92,12230,-1,0,0
0,93,1560,-1,0,0
0,94,4530,1,0,0
0,95,1180,-1,0,0
0,96,890,-1,0,0
0,97,2750,-1,0,0
0,98,1350,-1,0,0
0,99,1190,1,0,0
0,100,6400,-1,0,1
0,101,2270,-1,0,1
0,102,680,1,0,1
0,103,1040,1,0,1
0,104,4120,-1,0,1
0,105,1370,1,0,1
0,106,3740,1,0,1
0,107,1920,1,0,1
0,108,2320,1,0,1
0,109,9820,-1,0,1
0,110,3800,-1,0,1
0,111,6580,1,0,1
0,112,3830,-1,0,1
0,113,720,1,0,1
0,114,5220,1,0,1
0,115,1530,-1,0,1
0,116,800,-1,0,1
0,117,720,1,0,1
0,118,950,-1,0,1
0,119,660,1,0,1
0,120,1320,-1,0,1
0,121,1180,1,0,1
0,122,1800,1,0,1
0,123,4220,-1,0,1
0,124,4740,1,0,1
0,125,6990,1,0,1
0,126,3210,1,0,1
0,127,2480,-1,0,1
0,128,2580,1,0,1
0,129,1150,1,0,1
0,130,3100,1,0,1
0,131,8120,-1,0,1
0,132,9330,1,0,1
0,133,2530,1,0,1
0,134,1690,-1,0,1
0,135,1490,-1,0,1
0,136,2970,1,0,1
0,137,3870,1,0,1
0,138,3360,-1,0,1
0,139,1140,1,0,1
0,140,7850,1,0,1
0,141,1030,-1,0,1
0,142,3910,1,0,1
0,143,1990,1,0,1
0,144,4400,-1,0,1
0,145,920,1,0,1
0,146,810,1,0,1
0,147,1110,1,0,1
0,148,410,1,0,1
0,149,2750,1,0,1
0,150,3230,1,0,1
0,151,730,-1,0,1
0,152,5180,1,0,1
0,153,5330,-1,0,1
0,154,3880,1,0,1
0,155,1610,1,0,1
0,156,3070,1,0,1
0,157,800,1,0,1
0,158,2760,1,0,1
0,159,5400,-1,0,1
0,160,8790,-1,0,1
0,161,2250,-1,0,1
0,162,1670,1,0,1
0,163,490,1,0,1
0,164,5190,-1,0,1
0,165,3140,1,0,1
0,166,740,1,0,1
0,167,4720,1,0,1
0,168,4380,1,0,1
0,169,1240,1,0,1
0,170,860,1,0,1
0,171,6770,1,0,1
0,172,8410,-1,0,1
0,173,3900,1,0,1
0,174,1870,1,0,1
0,175,2080,1,0,1
0,176,2730,1,0,1
0,177,9360,1,0,1
0,178,6630,-1,0,1
0,179,1150,1,0,1
0,180,4360,1,0,1
0,181,5420,-1,0,1
0,182,2590,1,0,1
0,183,4820,-1,0,1
0,184,1030,1,0,1
0,185,1290,1,0,1
0,186,1510,-1,0,1
0,187,1450,1,0,1
0,188,1980,1,0,1
0,189,5600,1,0,1
0,190,1090,-1,0,1
0,191,3520,1,0,1
0,192,6830,-1,0,1
0,193,2090,1,0,1
0,194,1310,-1,0,1
0,195,4820,1,0,1
0,196,1980,1,0,1
0,197,6120,1,0,1
0,198,2480,-1,0,1
0,199,1700,-1,0,1
0,200,600,1,1,0
0,201,2190,-1,1,0
0,202,7890,-1,1,0
0,203,2040,1,1,0
0,204,1840,-1,1,0
0,205,1910,1,1,0
0,206,2840,1,1,0
0,207,4940,-1,1,0
0,208,17540,1,1,0
0,209,940,-1,1,0
0,210,2000,-1,1,0
0,211,1930,-1,1,0
0,212,2740,1,1,0
0,213,3960,1,1,0
0,214,940,1,1,0
0,215,3050,-1,1,0
0,216,7160,1,1,0
0,217,3300,-1,1,0
0,218,3580,-1,1,0
0,219,8750,1,1,0
0,220,2720,-1,1,0
0,221,2340,-1,1,0
0,222,3050,-1,1,0
0,223,690,-1,1,0
0,224,6040,-1,1,0
0,225,1490,-1,1,0
0,226,1330,-1,1,0
0,227,2590,-1,1,0
0,228,1080,1,1,0
0,229,5180,-1,1,0
0,230,2430,-1,1,0
0,231,2400,-1,1,0
0,232,3970,-1,1,0
0,233,1920,-1,1,0
0,234,720,-1,1,0
0,235,1250,1,1,0
0,236,1310,-1,1,0
0,237,3940,-1,1,0
0,238,1940,-1,1,0
0,239,2060,-1,1,0
0,240,1260,1,1,0
0,241,4810,-1,1,0
0,242,250,1,1,0
0,243,1480,1,1,0
0,244,3030,1,1,0
0,245,510,-1,1,0
0,246,1470,-1,1,0
0,247,450,-1,1,0
0,248,9770,-1,1,0
0,249,1120,1,1,0
0,250,450,1,1,0
0,251,3870,-1,1,0
0,252,760,1,1,0
0,253,4550,-1,1,0
0,254,1860,-1,1,0
0,255,4340,-1,1,0
0,256,1850,1,1,0
0,257,2660,-1,1,0
0,258,640,-1,1,0
0,259,8200,-1,1,0
0,260,2840,1,1,0
0,261,3240,1,1,0
0,262,6290,-1,1,0
0,263,720,1,1,0
0,264,2200,1,1,0
0,265,2250,-1,1,0
0,266,2650,-1,1,0
0,267,14510,1,1,0
0,268,2100,1,1,0
0,269,5300,1,1,0
0,270,880,1,1,0
0,271,1350,-1,1,0
0,272,1180,1,1,0
0,273,530,-1,1,0
0,274,2240,-1,1,0
0,275,8930,-1,1,0
0,276,15030,1,1,0
0,277,900,-1,1,0
0,278,1820,1,1,0
0,279,1600,-1,1,0
0,280,5700,-1,1,0
0,281,3150,-1,1,0
0,282,5070,-1,1,0
0,283,5530,1,1,0
0,284,510,1,1,0
0,285,820,1,1,0
0,286,1040,-1,1,0
0,287,8170,1,1,0
0,288,9370,-1,1,0
0,289,4600,1,1,0
0,290,2100,1,1,0
0,291,5740,-1,1,0
0,292,1680,1,1,0
0,293,750,-1,1,0
0,294,5510,-1,1,0
0,295,1550,-1,1,0
0,296,1370,-1,1,0
0,297,6410,-1,1,0
0,298,10000,-1,1,0
0,299,3940,-1,1,0
0,300,1680,1,0,2
0,301,630,-1,0,2
0,302,1840,1,0,2
0,303,1070,1,0,2
0,304,1950,1,0,2
0,305,1530,-1,0,2
0,306,2980,1,0,2
0,307,1330,1,0,2
0,308,3610,1,0,2
0,309,1810,1,0,2
0,310,2860,-1,0,2
0,311,3950,1,0,2
0,312,4570,1,0,2
0,313,2720,-1,0,2
0,314,5400,1,0,2
0,315,11390,-1,0,2
0,316,3340,1,0,2
0,317,2680,-1,0,2
0,318,3370,-1,0,2
0,319,2180,-1,0,2
0,320,2430,1,0,2
0,321,2800,1,0,2
0,322,1520,1,0,2
0,323,9000,1,0,2
0,324,1180,1,0,2
0,325,1520,1,0,2
0,326,6180,1,0,2
0,327,5360,1,0,2
0,328,450,1,0,2
0,329,720,-1,0,2
0,330,1040,-1,0,2
0,331,1670,1,0,2
0,332,7150,1,0,2
0,333,1000,1,0,2
0,334,870,1,0,2
0,335,1440,1,0,2
0,336,2070,1,0,2
0,337,1650,1,0,2
0,338,8880,1,0,2
0,339,1760,1,0,2
0,340,790,-1,0,2
0,341,6860,-1,0,2
0,342,2870,1,0,2
0,343,450,1,0,2
0,344,4660,-1,0,2
0,345,8190,1,0,2
0,346,390,-1,0,2
0,347,2740,1,0,2
0,348,1130,1,0,2
0,349,7110,1,0,2
0,350,470,1,0,2
0,351,2850,1,0,2
0,352,4290,-1,0,2
0,353,990,1,0,2
0,354,5960,1,0,2
0,355,2850,1,0,2
0,356,3010,1,0,2
0,357,970,1,0,2
0,358,5880,1,0,2
0,359,2260,-1,0,2
0,360,5020,1,0,2
0,361,2960,1,0,2
0,362,1600,1,0,2
0,363,790,1,0,2
0,364,2600,1,0,2
0,365,1200,1,0,2
0,366,2810,1,0,2
0,367,3580,1,0,2
0,368,4060,1,0,2
0,369,4740,1,0,2
0,370,1250,1,0,2
0,371,1220,1,0,2
0,372,7670,1,0,2
0,373,3570,1,0,2
0,374,3260,1,0,2
0,375,1170,1,0,2
0,376,4790,-1,0,2
0,377,2450,1,0,2
0,378,1240,1,0,2
0,379,1520,1,0,2
0,380,9540,-1,0,2
0,381,4040,1,0,2
0,382,4030,-1,0,2
0,383,1140,1,0,2
0,384,3310,1,0,2
0,385,1250,1,0,2
0,386,3020,1,0,2
0,387,2770,1,0,2
0,388,1410,-1,0,2
0,389,3800,1,0,2
0,390,1660,-1,0,2
0,391,3410,1,0,2
0,392,2680,-1,0,2
0,393,6890,1,0,2
0,394,3250,-1,0,2
0,395,4900,-1,0,2
0,396,2150,1,0,2
0,397,1500,1,0,2
0,398,1420,-1,0,2
0,399,3070,-1,0,2
0,400,750,-1,2,0
0,401,5990,-1,2,0
0,402,3070,-1,2,0
0,403,6210,-1,2,0
0,404,3000,1,2,0
0,405,1030,-1,2,0
0,406,670,-1,2,0
0,407,590,-1,2,0
0,408,4480,-1,2,0
0,409,1250,-1,2,0
0,410,730,-1,2,0
0,411,940,1,2,0
0,412,3220,-1,2,0
0,413,3660,1,2,0
0,414,650,-1,2,0
0,415,3330,-1,2,0
0,416,2030,-1,2,0
0,417,3850,-1,2,0
0,418,7230,-1,2,0
0,419,7460,-1,2,0
0,420,3310,-1,2,0
0,421,3110,-1,2,0
0,422,620,1,2,0
0,423,4260,-1,2,0
0,424,3970,-1,2,0
0,425,4660,-1,2,0
0,426,2810,-1,2,0
0,427,2070,-1,2,0
0,428,1240,1,2,0
0,429,730,1,2,0
0,430,6130,1,2,0
0,431,2230,-1,2,0
0,432,3400,1,2,0
0,433,1130,1,2,0
0,434,1740,1,2,0
0,435,570,-1,2,0
0,436,3410,-1,2,0
0,437,4500,-1,2,0
0,438,900,1,2,0
0,439,1230,-1,2,0
0,440,1010,-1,2,0
0,441,3170,1,2,0
0,442,560,-1,2,0
0,443,7780,-1,2,0
0,444,1460,-1,2,0
0,445,1490,-1,2,0
0,446,2880,-1,2,0
0,447,1320,-1,2,0
0,448,8690,-1,2,0
0,449,2860,-1,2,0
0,450,1530,-1,2,0
0,451,1570,-1,2,0
0,452,1160,1,2,0
0,453,1630,-1,2,0
0,454,2350,-1,2,0
0,455,1450,1,2,0
0,456,4070,-1,2,0
0,457,2500,-1,2,0
0,458,1930,-1,2,0
0,459,5930,1,2,0
0,460,1770,-1,2,0
0,461,4230,-1,2,0
0,462,2030,-1,2,0
0,463,730,-1,2,0
0,464,2780,1,2,0
0,465,2510,-1,2,0
0,466,1940,-1,2,0
0,467,2400,1,2,0
0,468,2290,-1,2,0
0,469,1110,-1,2,0
0,470,2280,-1,2,0
0,471,1700,-1,2,0
0,472,1160,-1,2,0
0,473,3260,1,2,0
0,474,2610,-1,2,0
0,475,1060,-1,2,0
0,476,1410,-1,2,0
0,477,3900,-1,2,0
0,478,870,1,2,0
0,479,590,-1,2,0
0,480,1130,-1,2,0
0,481,1380,-1,2,0
0,482,2770,-1,2,0
0,483,2400,-1,2,0
0,484,1470,-1,2,0
0,485,5090,-1,2,0
0,486,5490,-1,2,0
0,487,1080,1,2,0
0,488,3660,-1,2,0
0,489,3600,-1,2,0
0,490,1910,-1,2,0
0,491,3470,1,2,0
0,492,1330,-1,2,0
0,493,1140,1,2,0
0,494,1580,-1,2,0
0,495,4590,-1,2,0
0,496,910,-1,2,0
0,497,820,-1,2,0
0,498,2260,-1,2,0
0,499,510,-1,2,0
0,500,2840,1,2,1
0,501,1160,-1,2,1
0,502,440,-1,2,1
0,503,2220,1,2,1
0,504,1410,-1,2,1
0,505,2450,-1,2,1
0,506,6350,1,2,1
0,507,970,-1,2,1
0,508,4550,1,2,1
0,509,2210,-1,2,1
0,510,770,-1,2,1
0,511,9470,-1,2,1
0,512,640,-1,2,1
0,513,1240,-1,2,1
0,514,3360,1,2,1
0,515,1890,-1,2,1
0,516,5710,-1,2,1
0,517,4740,-1,2,1
0,518,1370,-1,2,1
0,519,980,1,2,1
0,520,4110,1,2,1
0,521,5720,-1,2,1
0,522,1130,1,2,1
0,523,1190,-1,2,1
0,524,1900,-1,2,1
0,525,1460,-1,2,1
0,526,1540,-1,2,1
0,527,940,-1,2,1
0,528,5950,1,2,1
0,529,6700,-1,2,1
0,530,1650,1,2,1
0,531,1540,1,2,1
0,532,1840,-1,2,1
0,533,1040,-1,2,1
0,534,1470,-1,2,1
0,535,5090,-1,2,1
0,536,1600,-1,2,1
0,537,2340,1,2,1
0,538,7330,1,2,1
0,539,1270,-1,2,1
0,540,1620,1,2,1
0,541,500,-1,2,1
0,542,680,-1,2,1
0,543,1010,-1,2,1
0,544,3270,1,2,1
0,545,1450,1,2,1
0,546,1420,1,2,1
0,547,3730,-1,2,1
0,548,2730,-1,2,1
0,549,3010,-1,2,1
0,550,1280,1,2,1
0,551,2490,1,2,1
0,552,6170,-1,2,1
0,553,1930,-1,2,1
0,554,1250,-1,2,1
0,555,700,1,2,1
0,556,7270,1,2,1
0,557,1710,-1,2,1
0,558,3680,-1,2,1
0,559,2310,1,2,1
0,560,3380,1,2,1
0,561,4330,-1,2,1
0,562,450,-1,2,1
0,563,1180,1,2,1
0,564,800,-1,2,1
0,565,3850,-1,2,1
0,566,810,-1,2,1
0,567,3000,1,2,1
0,568,4060,1,2,1
0,569,420,1,2,1
0,570,1300,-1,2,1
0,571,8540,-1,2,1
0,572,4240,1,2,1
0,573,3390,-1,2,1
0,574,2960,-1,2,1
0,575,800,-1,2,1
0,576,1580,-1,2,1
0,577,670,1,2,1
0,578,11360,-1,2,1
0,579,1340,-1,2,1
0,580,5220,-1,2,1
0,581,2680,1,2,1
0,582,1410,-1,2,1
0,583,1680,-1,2,1
0,584,2030,1,2,1
0,585,690,-1,2,1
0,586,2070,-1,2,1
0,587,2120,-1,2,1
0,588,1340,-1,2,1
0,589,470,1,2,1
0,590,1770,-1,2,1
0,591,5690,-1,2,1
0,592,1900,-1,2,1
0,593,4920,-1,2,1
0,594,2280,1,2,1
0,595,3110,-1,2,1
0,596,1740,1,2,1
0,597,1090,1,2,1
0,598,1360,1,2,1
0,599,640,-1,2,1
0,600,4890,-1,1,2
0,601,8990,1,1,2
0,602,580,-1,1,2
0,603,2970,1,1,2
0,604,890,1,1,2
0,605,1920,-1,1,2
0,606,730,-1,1,2
0,607,1570,-1,1,2
0,608,4930,1,1,2
0,609,1310,1,1,2
0,610,3370,1,1,2
0,611,6080,1,1,2
0,612,900,-1,1,2
0,613,2770,1,1,2
0,614,5310,1,1,2
0,615,900,1,1,2
0,616,560,-1,1,2
0,617,600,-1,1,2
0,618,3190,-1,1,2
0,619,12450,1,1,2
0,620,830,-1,1,2
0,621,980,1,1,2
0,622,2920,-1,1,2
0,623,5320,1,1,2
0,624,1670,-1,1,2
0,625,920,1,1,2
0,626,440,-1,1,2
0,627,5550,1,1,2
0,628,1620,1,1,2
0,629,3960,-1,1,2
0,630,7260,1,1,2
0,631,850,-1,1,2
0,632,4050,-1,1,2
0,633,3400,1,1,2
0,634,1950,1,1,2
0,635,4860,1,1,2
0,636,4000,1,1,2
0,637,5760,1,1,2
0,638,4060,1,1,2
0,639,1590,1,1,2
0,640,1200,1,1,2
0,641,590,-1,1,2
0,642,3550,1,1,2
0,643,440,-1,1,2
0,644,1250,1,1,2
0,645,1410,-1,1,2
0,646,5120,1,1,2
0,647,6140,1,1,2
0,648,940,1,1,2
0,649,3130,-1,1,2
0,650,2190,1,1,2
0,651,2170,1,1,2
0,652,770,1,1,2
0,653,4430,1,1,2
0,654,2870,1,1,2
0,655,1780,1,1,2
0,656,9770,1,1,2
0,657,850,1,1,2
0,658,1280,-1,1,2
0,659,1080,1,1,2
0,660,2490,-1,1,2
0,661,4850,1,1,2
0,662,1710,-1,1,2
0,663,4620,-1,1,2
0,664,5830,1,1,2
0,665,1960,1,1,2
0,666,2730,1,1,2
0,667,10310,1,1,2
0,668,4090,1,1,2
0,669,5250,-1,1,2
0,670,2080,1,1,2
0,671,7430,1,1,2
0,672,1730,1,1,2
0,673,1890,-1,1,2
0,674,1160,1,1,2
0,675,1630,1,1,2
0,676,670,1,1,2
0,677,3110,1,1,2
0,678,10170,1,1,2
0,679,950,-1,1,2
0,680,2440,-1,1,2
0,681,2530,-1,1,2
0,682,970,-1,1,2
0,683,2510,1,1,2
0,684,1210,1,1,2
0,685,10440,1,1,2
0,686,3820,1,1,2
0,687,2750,1,1,2
0,688,2310,1,1,2
0,689,880,-1,1,2
0,690,1990,1,1,2
0,691,6670,1,1,2
0,692,870,1,1,2
0,693,2490,1,1,2
0,694,940,-1,1,2
0,695,1350,1,1,2
0,696,4560,-1,1,2
0,697,1420,1,1,2
0,698,4750,1,1,2
0,699,1000,1,1,2
