parcode,trial,rt,choice,item_left,item_right
0,0,790,-1,0,0
0,1,3230,-1,0,0
0,2,6550,-1,0,0
0,3,5850,-1,0,0
0,4,2300,1,0,0
0,5,7310,-1,0,0
0,6,2290,-1,0,0
0,7,2340,-1,0,0
0,8,1460,-1,0,0
0,9,1100,1,0,0
0,10,3650,-1,0,0
0,11,3420,-1,0,0
0,12,310,-1,0,0
0,13,1800,-1,0,0
0,14,1270,1,0,0
0,15,4560,1,0,0
0,16,3000,-1,0,0
0,17,1750,1,0,0
0,18,550,-1,0,0
0,19,1560,1,0,0
0,20,1480,1,0,0
0,21,360,-1,0,0
0,22,3260,1,0,0
0,23,6790,-1,0,0
0,24,6260,-1,0,0
0,25,1450,-1,0,0
0,26,2110,1,0,0
0,27,3110,-1,0,0
0,28,3600,-1,0,0
0,29,3200,1,0,0
0,30,4160,-1,0,0
0,31,1610,-1,0,0
0,32,1160,-1,0,0
0,33,900,-1,0,0
0,34,5360,-1,0,0
0,35,2820,-1,0,0
0,36,3120,1,0,0
0,37,7810,-1,0,0
0,38,5760,1,0,0
0,39,2060,-1,0,0
0,40,1400,-1,0,0
0,41,4720,-1,0,0
0,42,1810,-1,0,0
0,43,4870,1,0,0
0,44,610,1,0,0
0,45,1390,-1,0,0
0,46,1470,-1,0,0
0,47,1270,-1,0,0
0,48,1470,-1,0,0
0,49,5300,-1,0,0
0,50,11920,-1,0,0
0,51,6620,1,0,0
0,52,3040,1,0,0
0,53,870,-1,0,0
0,54,1170,-1,0,0
0,55,690,1,0,0
0,56,3470,1,0,0
0,57,8000,1,0,0
0,58,950,-1,0,0
0,59,5690,-1,0,0
0,60,1080,1,0,0
0,61,2390,-1,0,0
0,62,5840,-1,0,0
0,63,830,-1,0,0
0,64,1020,1,0,0
0,65,2460,-1,0,0
0,66,1100,1,0,0
0,67,3110,-1,0,0
0,68,1360,-1,0,0
0,69,7110,-1,0,0
0,70,1290,1,0,0
0,71,1260,-1,0,0
0,72,1240,1,0,0
0,73,1050,1,0,0
0,74,1420,-1,0,0
0,75,1820,-1,0,0
0,76,3000,-1,0,0
0,77,980,1,0,0
0,78,3350,1,0,0
0,79,4600,1,0,0
0,80,3010,1,0,0
0,81,5580,-1,0,0
0,82,1330,-1,0,0
0,83,750,1,0,0
0,84,1270,-1,0,0
0,85,1960,-1,0,0
0,86,1180,1,0,0
0,87,7020,1,0,0
0,88,5260,-1,0,0
0,89,2210,1,0,0
0,90,4370,1,0,0
0,91,750,-1,0,0
0,92,9760,-1,0,0
0,93,1240,1,0,0
0,94,1190,-1,0,0
0,95,2040,1,0,0
0,96,5430,-1,0,0
0,97,2740,-1,0,0
0,98,1470,-1,0,0
0,99,3860,1,0,0
0,100,1900,-1,0,0
0,101,3880,1,0,0
0,102,6910,-1,0,0
0,103,380,1,0,0
0,104,2030,-1,0,0
0,105,1540,1,0,0
0,106,2660,1,0,0
0,107,3810,1,0,0
0,108,660,-1,0,0
0,109,2440,1,0,0
0,110,9810,-1,0,0
0,111,660,-1,0,0
0,112,2190,1,0,0
0,113,590,1,0,0
0,114,1160,1,0,0
0,115,6750,-1,0,0
0,116,4210,-1,0,0
0,117,850,-1,0,0
0,118,2230,-1,0,0
0,119,9220,1,0,0
0,120,4160,-1,0,0
0,121,1520,1,0,0
0,122,1100,1,0,0
0,123,5220,-1,0,0
0,124,1520,-1,0,0
0,125,1250,1,0,0
0,126,830,1,0,0
0,127,430,1,0,0
0,128,5280,-1,0,0
0,129,2230,-1,0,0
0,130,2920,-1,0,0
0,131,3730,1,0,0
0,132,1950,1,0,0
0,133,1460,-1,0,0
0,134,3500,1,0,0
0,135,1420,-1,0,0
0,136,5170,1,0,0
0,137,650,-1,0,0
0,138,1190,1,0,0
0,139,7260,1,0,0
0,140,3460,1,0,0
0,141,4160,-1,0,0
0,142,2020,1,0,0
0,143,1200,-1,0,0
0,144,730,1,0,0
0,145,5660,1,0,0
0,146,3310,-1,0,0
0,147,10640,-1,0,0
0,148,760,1,0,0
0,149,1050,-1,0,0
0,150,770,-1,0,0
0,151,2320,-1,0,0
0,152,2520,-1,0,0
0,153,1270,1,0,0
0,154,2980,-1,0,0
0,155,1250,1,0,0
0,156,2340,-1,0,0
0,157,4220,-1,0,0
0,158,1980,1,0,0
0,159,670,-1,0,0
0,160,3720,1,0,0
0,161,3970,1,0,0
0,162,1270,-1,0,0
0,163,2690,-1,0,0
0,164,4250,1,0,0
0,165,1420,-1,0,0
0,166,1590,1,0,0
0,167,2290,-1,0,0
0,168,2720,1,0,0
0,169,3330,-1,0,0
0,170,4840,-1,0,0
0,171,1850,-1,0,0
0,172,930,1,0,0
0,173,620,-1,0,0
0,174,5050,-1,0,0
0,175,970,1,0,0
0,176,12640,-1,0,0
0,177,1470,1,0,0
0,178,4550,1,0,0
0,179,3570,1,0,0
0,180,4290,1,0,0
0,181,2060,-1,0,0
0,182,1220,1,0,0
0,183,6770,1,0,0
0,184,630,-1,0,0
0,185,1520,1,0,0
0,186,4550,1,0,0
0,187,2670,1,0,0
0,188,1780,-1,0,0
0,189,1710,-1,0,0
0,190,1160,-1,0,0
0,191,1000,-1,0,0
0,192,1660,1,0,0
0,193,1690,1,0,0
0,194,8040,-1,0,0
0,195,460,1,0,0
0,196,2900,1,0,0
0,197,870,1,0,0
0,198,720,1,0,0
0,199,5160,-1,0,0
0,200,2640,-1,0,0
0,201,530,1,0,0
0,202,5010,-1,0,0
0,203,590,-1,0,0
0,204,1770,-1,0,0
0,205,5070,1,0,0
0,206,550,-1,0,0
0,207,900,-1,0,0
0,208,1910,1,0,0
0,209,1210,-1,0,0
0,210,2080,1,0,0
0,211,4590,-1,0,0
0,212,3820,1,0,0
0,213,1320,1,0,0
0,214,2770,1,0,0
0,215,4280,-1,0,0
0,216,1160,-1,0,0
0,217,4120,1,0,0
0,218,1740,1,0,0
0,219,4960,-1,0,0
0,220,6360,1,0,0
0,221,10390,1,0,0
0,222,1430,1,0,0
0,223,1090,1,0,0
0,224,400,1,0,0
0,225,1190,-1,0,0
0,226,690,-1,0,0
0,227,3390,-1,0,0
0,228,1690,-1,0,0
0,229,1350,-1,0,0
0,230,2040,-1,0,0
0,231,700,1,0,0
0,232,760,1,0,0
0,233,7860,1,0,0
0,234,1870,-1,0,0
0,235,1730,1,0,0
0,236,610,-1,0,0
0,237,860,-1,0,0
0,238,940,1,0,0
0,239,2070,1,0,0
0,240,1760,1,0,0
0,241,4810,1,0,0
0,242,4900,1,0,0
0,243,4760,1,0,0
0,244,1500,1,0,0
0,245,8240,-1,0,0
0,246,360,1,0,0
0,247,4060,-1,0,0
0,248,3810,-1,0,0
0,249,9780,1,0,0
0,250,3100,1,0,0
0,251,5690,-1,0,0
0,252,2530,1,0,0
0,253,1890,1,0,0
0,254,3570,-1,0,0
0,255,2100,-1,0,0
0,256,5600,-1,0,0
0,257,2420,-1,0,0
0,258,1560,-1,0,0
0,259,1870,-1,0,0
0,260,9340,-1,0,0
0,261,6300,1,0,0
0,262,1450,1,0,0
0,263,3150,1,0,0
0,264,2090,1,0,0
0,265,13500,1,0,0
0,266,750,1,0,0
0,267,8310,-1,0,0
0,268,1230,1,0,0
0,269,4010,-1,0,0
0,270,5560,1,0,0
0,271,2100,1,0,0
0,272,3220,1,0,0
0,273,1430,-1,0,0
0,274,800,-1,0,0
0,275,5010,-1,0,0
0,276,2240,-1,0,0
0,277,5860,1,0,0
0,278,990,1,0,0
0,279,1350,1,0,0
0,280,5210,1,0,0
0,281,10590,1,0,0
0,282,3600,1,0,0
0,283,2600,1,0,0
0,284,1120,-1,0,0
0,285,8910,-1,0,0
0,286,2280,1,0,0
0,287,550,-1,0,0
0,288,1730,1,0,0
0,289,970,-1,0,0
0,290,2110,-1,0,0
0,291,4140,-1,0,0
0,292,460,1,0,0
0,293,6750,1,0,0
0,294,7600,1,0,0
0,295,980,1,0,0
0,296,300,-1,0,0
0,297,1870,-1,0,0
0,298,2350,1,0,0
0,299,770,1,0,0
0,300,4430,1,0,1
0,301,1230,1,0,1
0,302,7060,1,0,1
0,303,1560,1,0,1
0,304,5260,1,0,1
0,305,5850,1,0,1
0,306,5910,1,0,1
0,307,2440,1,0,1
0,308,3210,1,0,1
0,309,3160,1,0,1
0,310,1910,1,0,1
0,311,690,1,0,1
0,312,14990,1,0,1
0,313,870,1,0,1
0,314,4050,1,0,1
0,315,1660,1,0,1
0,316,1230,1,0,1
0,317,560,-1,0,1
0,318,4100,1,0,1
0,319,3370,-1,0,1
0,320,1990,1,0,1
0,321,870,1,0,1
0,322,5440,1,0,1
0,323,1200,-1,0,1
0,324,630,-1,0,1
0,325,2040,1,0,1
0,326,2250,1,0,1
0,327,2510,1,0,1
0,328,1590,-1,0,1
0,329,2290,1,0,1
0,330,890,-1,0,1
0,331,2810,1,0,1
0,332,2940,1,0,1
0,333,4020,1,0,1
0,334,2750,1,0,1
0,335,5180,1,0,1
0,336,4530,-1,0,1
0,337,1550,1,0,1
0,338,1510,1,0,1
0,339,540,1,0,1
0,340,5310,-1,0,1
0,341,750,1,0,1
0,342,2840,-1,0,1
0,343,3140,1,0,1
0,344,610,1,0,1
0,345,3130,-1,0,1
0,346,2900,1,0,1
0,347,4680,1,0,1
0,348,590,1,0,1
0,349,2100,-1,0,1
0,350,2740,1,0,1
0,351,3230,1,0,1
0,352,4150,1,0,1
0,353,1560,1,0,1
0,354,3480,1,0,1
0,355,1340,-1,0,1
0,356,3810,-1,0,1
0,357,800,1,0,1
0,358,1200,1,0,1
0,359,1160,1,0,1
0,360,420,1,0,1
0,361,880,-1,0,1
0,362,720,-1,0,1
0,363,2520,1,0,1
0,364,1070,1,0,1
0,365,3160,-1,0,1
0,366,420,1,0,1
0,367,1180,1,0,1
0,368,1800,1,0,1
0,369,2870,-1,0,1
0,370,2840,1,0,1
0,371,1600,-1,0,1
0,372,1250,1,0,1
0,373,7150,1,0,1
0,374,3650,1,0,1
0,375,1340,1,0,1
0,376,1650,1,0,1
0,377,3590,1,0,1
0,378,2340,-1,0,1
0,379,3800,-1,0,1
0,380,3990,-1,0,1
0,381,2280,1,0,1
0,382,3320,1,0,1
0,383,870,1,0,1
0,384,1380,1,0,1
0,385,3580,-1,0,1
0,386,1640,1,0,1
0,387,1240,-1,0,1
0,388,890,1,0,1
0,389,250,1,0,1
0,390,2010,1,0,1
0,391,2750,1,0,1
0,392,1310,-1,0,1
0,393,3890,1,0,1
0,394,950,1,0,1
0,395,6460,1,0,1
0,396,1090,1,0,1
0,397,830,1,0,1
0,398,1560,1,0,1
0,399,2650,1,0,1
0,400,4880,-1,0,1
0,401,1220,1,0,1
0,402,1770,1,0,1
0,403,3140,1,0,1
0,404,9640,1,0,1
0,405,1360,-1,0,1
0,406,3110,-1,0,1
0,407,2260,1,0,1
0,408,6570,1,0,1
0,409,10530,1,0,1
0,410,2180,1,0,1
0,411,2400,1,0,1
0,412,5500,-1,0,1
0,413,1520,1,0,1
0,414,430,1,0,1
0,415,410,1,0,1
0,416,3910,1,0,1
0,417,12890,1,0,1
0,418,8830,1,0,1
0,419,2680,1,0,1
0,420,2050,1,0,1
0,421,1340,1,0,1
0,422,2520,-1,0,1
0,423,1110,1,0,1
0,424,600,1,0,1
0,425,7160,1,0,1
0,426,3080,-1,0,1
0,427,1130,1,0,1
0,428,6470,1,0,1
0,429,1000,1,0,1
0,430,390,1,0,1
0,431,840,1,0,1
0,432,1500,1,0,1
0,433,1870,-1,0,1
0,434,2040,-1,0,1
0,435,1320,1,0,1
0,436,8360,1,0,1
0,437,2830,1,0,1
0,438,6740,1,0,1
0,439,4370,1,0,1
0,440,2380,-1,0,1
0,441,1910,1,0,1
0,442,860,-1,0,1
0,443,820,1,0,1
0,444,1140,-1,0,1
0,445,1460,-1,0,1
0,446,4460,1,0,1
0,447,950,1,0,1
0,448,840,1,0,1
0,449,4060,1,0,1
0,450,1760,1,0,1
0,451,2860,1,0,1
0,452,910,-1,0,1
0,453,9640,1,0,1
0,454,1750,1,0,1
0,455,2350,-1,0,1
0,456,3140,-1,0,1
0,457,2420,-1,0,1
0,458,1630,1,0,1
0,459,750,1,0,1
0,460,750,-1,0,1
0,461,1510,1,0,1
0,462,1870,1,0,1
0,463,1220,-1,0,1
0,464,4780,1,0,1
0,465,2040,1,0,1
0,466,3810,1,0,1
0,467,950,-1,0,1
0,468,3690,1,0,1
0,469,6610,1,0,1
0,470,1160,1,0,1
0,471,1140,-1,0,1
0,472,3180,1,0,1
0,473,470,1,0,1
0,474,5020,1,0,1
0,475,2490,1,0,1
0,476,3940,1,0,1
0,477,4750,-1,0,1
0,478,1520,1,0,1
0,479,1260,1,0,1
0,480,2970,-1,0,1
0,481,1570,1,0,1
0,482,7080,-1,0,1
0,483,830,1,0,1
0,484,6700,1,0,1
0,485,1040,-1,0,1
0,486,590,1,0,1
0,487,400,-1,0,1
0,488,1830,1,0,1
0,489,1080,1,0,1
0,490,2320,-1,0,1
0,491,1730,-1,0,1
0,492,2000,1,0,1
0,493,880,1,0,1
0,494,1660,1,0,1
0,495,1010,-1,0,1
0,496,1280,1,0,1
0,497,3200,1,0,1
0,498,580,1,0,1
0,499,1310,1,0,1
0,500,2660,1,0,1
0,501,4770,1,0,1
0,502,4950,1,0,1
0,503,2280,1,0,1
0,504,810,-1,0,1
0,505,940,1,0,1
0,506,3500,1,0,1
0,507,5350,1,0,1
0,508,1240,-1,0,1
0,509,1480,1,0,1
0,510,1650,-1,0,1
0,511,4610,1,0,1
0,512,1070,-1,0,1
0,513,7250,-1,0,1
0,514,5760,1,0,1
0,515,4780,1,0,1
0,516,3550,1,0,1
0,517,3290,1,0,1
0,518,330,1,0,1
0,519,900,1,0,1
0,520,950,1,0,1
0,521,3810,-1,0,1
0,522,3010,-1,0,1
0,523,2190,1,0,1
0,524,760,1,0,1
0,525,1870,1,0,1
0,526,1830,1,0,1
0,527,710,1,0,1
0,528,1170,1,0,1
0,529,720,-1,0,1
0,530,2290,1,0,1
0,531,3800,1,0,1
0,532,3250,1,0,1
0,533,3630,1,0,1
0,534,4080,1,0,1
0,535,8880,1,0,1
0,536,2250,1,0,1
0,537,2080,1,0,1
0,538,3000,-1,0,1
0,539,680,1,0,1
0,540,1380,1,0,1
0,541,7830,-1,0,1
0,542,320,1,0,1
0,543,1840,1,0,1
0,544,3240,-1,0,1
0,545,1860,1,0,1
0,546,2590,1,0,1
0,547,1760,1,0,1
0,548,1380,1,0,1
0,549,6620,1,0,1
0,550,1100,1,0,1
0,551,5820,1,0,1
0,552,1120,1,0,1
0,553,1500,1,0,1
0,554,2830,1,0,1
0,555,1170,-1,0,1
0,556,6680,-1,0,1
0,557,4330,1,0,1
0,558,800,-1,0,1
0,559,1820,1,0,1
0,560,880,1,0,1
0,561,1150,-1,0,1
0,562,6010,1,0,1
0,563,1360,1,0,1
0,564,8040,1,0,1
0,565,600,-1,0,1
0,566,6880,-1,0,1
0,567,3200,1,0,1
0,568,2440,-1,0,1
0,569,1050,1,0,1
0,570,3670,1,0,1
0,571,560,-1,0,1
0,572,480,1,0,1
0,573,3070,-1,0,1
0,574,4730,-1,0,1
0,575,360,-1,0,1
0,576,910,1,0,1
0,577,2870,1,0,1
0,578,2050,1,0,1
0,579,1290,-1,0,1
0,580,2480,-1,0,1
0,581,2640,-1,0,1
0,582,4660,1,0,1
0,583,1120,1,0,1
0,584,3670,1,0,1
0,585,1420,1,0,1
0,586,6790,1,0,1
0,587,1290,1,0,1
0,588,1300,1,0,1
0,589,1010,1,0,1
0,590,1680,1,0,1
0,591,470,-1,0,1
0,592,3580,-1,0,1
0,593,2260,1,0,1
0,594,4270,1,0,1
0,595,2540,1,0,1
0,596,940,1,0,1
0,597,6650,1,0,1
0,598,740,1,0,1
0,599,2270,1,0,1
0,600,2320,1,0,1
0,601,1690,-1,0,1
0,602,2240,1,0,1
0,603,5210,1,0,1
0,604,3470,1,0,1
0,605,910,-1,0,1
0,606,2360,1,0,1
0,607,1230,1,0,1
0,608,930,1,0,1
0,609,2720,1,0,1
0,610,630,1,0,1
0,611,3710,1,0,1
0,612,650,-1,0,1
0,613,1030,1,0,1
0,614,2510,1,0,1
0,615,2460,1,0,1
0,616,520,-1,0,1
0,617,1230,1,0,1
0,618,2280,1,0,1
0,619,2300,-1,0,1
0,620,2710,-1,0,1
0,621,4490,1,0,1
0,622,7810,-1,0,1
0,623,740,1,0,1
0,624,830,-1,0,1
0,625,970,-1,0,1
0,626,2590,1,0,1
0,627,4610,1,0,1
0,628,10420,1,0,1
0,629,1500,1,0,1
0,630,2210,1,0,1
0,631,2870,1,0,1
0,632,5380,1,0,1
0,633,3390,1,0,1
0,634,3560,-1,0,1
0,635,1780,1,0,1
0,636,9190,-1,0,1
0,637,1090,-1,0,1
0,638,7510,1,0,1
0,639,2000,1,0,1
0,640,980,-1,0,1
0,641,530,-1,0,1
0,642,1630,1,0,1
0,643,6060,1,0,1
0,644,1650,-1,0,1
0,645,1240,-1,0,1
0,646,7910,1,0,1
0,647,860,1,0,1
0,648,8490,-1,0,1
0,649,1080,1,0,1
0,650,650,-1,0,1
0,651,5040,1,0,1
0,652,4020,1,0,1
0,653,1140,1,0,1
0,654,4390,1,0,1
0,655,780,-1,0,1
0,656,2800,1,0,1
0,657,1640,1,0,1
0,658,900,1,0,1
0,659,3640,-1,0,1
0,660,2580,-1,0,1
0,661,1320,1,0,1
0,662,1720,1,0,1
0,663,1980,1,0,1
0,664,790,1,0,1
0,665,1290,1,0,1
0,666,2070,1,0,1
0,667,3270,1,0,1
0,668,3360,-1,0,1
0,669,1160,1,0,1
0,670,1260,1,0,1
0,671,2100,1,0,1
0,672,2760,-1,0,1
0,673,2890,1,0,1
0,674,1040,-1,0,1
0,675,4760,1,0,1
0,676,770,1,0,1
0,677,800,1,0,1
0,678,840,1,0,1
0,679,1490,1,0,1
0,680,1010,-1,0,1
0,681,2210,1,0,1
0,682,5560,1,0,1
0,683,680,-1,0,1
0,684,5900,-1,0,1
0,685,4230,1,0,1
0,686,4030,-1,0,1
0,687,770,-1,0,1
0,688,1460,1,0,1
0,689,4830,1,0,1
0,690,9030,1,0,1
0,691,3890,1,0,1
0,692,670,1,0,1
0,693,1570,1,0,1
0,694,2080,1,0,1
0,695,5790,1,0,1
0,696,1540,1,0,1
0,697,3270,1,0,1
0,698,4840,-1,0,1
0,699,2280,1,0,1
0,700,510,1,0,1
0,701,2040,1,0,1
0,702,3420,-1,0,1
0,703,3150,1,0,1
0,704,4440,1,0,1
0,705,4860,1,0,1
0,706,1700,-1,0,1
0,707,3220,1,0,1
0,708,2820,1,0,1
0,709,1510,1,0,1
0,710,4020,1,0,1
0,711,1880,1,0,1
0,712,2810,1,0,1
0,713,1890,1,0,1
0,714,6110,1,0,1
0,715,750,-1,0,1
0,716,10140,-1,0,1
0,717,1750,1,0,1
0,718,300,1,0,1
0,719,10350,1,0,1
0,720,7020,1,0,1
0,721,1090,-1,0,1
0,722,3900,1,0,1
0,723,2310,1,0,1
0,724,2960,-1,0,1
0,725,940,1,0,1
0,726,1380,1,0,1
0,727,5310,1,0,1
0,728,2340,1,0,1
0,729,2000,1,0,1
0,730,3270,1,0,1
0,731,4950,-1,0,1
0,732,3730,-1,0,1
0,733,2780,-1,0,1
0,734,6010,-1,0,1
0,735,1390,1,0,1
0,736,2320,1,0,1
0,737,1770,1,0,1
0,738,5230,-1,0,1
0,739,750,1,0,1
0,740,1840,1,0,1
0,741,1100,1,0,1
0,742,5540,1,0,1
0,743,1360,-1,0,1
0,744,7490,1,0,1
0,745,1170,1,0,1
0,746,4480,1,0,1
0,747,870,-1,0,1
0,748,1190,1,0,1
0,749,2140,1,0,1
0,750,2410,1,0,1
0,751,3380,1,0,1
0,752,2550,1,0,1
0,753,1940,1,0,1
0,754,1470,-1,0,1
0,755,4950,1,0,1
0,756,1000,1,0,1
0,757,3840,1,0,1
0,758,5310,1,0,1
0,759,880,-1,0,1
0,760,780,1,0,1
0,761,2640,-1,0,1
0,762,1430,1,0,1
0,763,410,1,0,1
0,764,4700,1,0,1
0,765,680,1,0,1
0,766,2400,1,0,1
0,767,2080,1,0,1
0,768,11510,-1,0,1
0,769,2110,1,0,1
0,770,3790,1,0,1
0,771,1810,1,0,1
0,772,1240,1,0,1
0,773,3680,1,0,1
0,774,3610,1,0,1
0,775,970,1,0,1
0,776,650,1,0,1
0,777,1470,1,0,1
0,778,4630,1,0,1
0,779,2420,1,0,1
0,780,6010,1,0,1
0,781,5250,1,0,1
0,782,5140,1,0,1
0,783,790,1,0,1
0,784,2370,1,0,1
0,785,1350,1,0,1
0,786,800,1,0,1
0,787,1680,1,0,1
0,788,9270,1,0,1
0,789,2400,1,0,1
0,790,3700,1,0,1
0,791,1740,1,0,1
0,792,3860,1,0,1
0,793,2500,1,0,1
0,794,4310,1,0,1
0,795,1760,1,0,1
0,796,1580,1,0,1
0,797,2500,-1,0,1
0,798,760,1,0,1
0,799,2030,1,0,1
0,800,3710,-1,0,1
0,801,2170,1,0,1
0,802,3230,1,0,1
0,803,8610,1,0,1
0,804,1800,1,0,1
0,805,1780,1,0,1
0,806,5530,1,0,1
0,807,820,-1,0,1
0,808,330,1,0,1
0,809,1080,-1,0,1
0,810,9450,1,0,1
0,811,1110,-1,0,1
0,812,1850,-1,0,1
0,813,1440,1,0,1
0,814,2290,-1,0,1
0,815,2670,-1,0,1
0,816,7180,1,0,1
0,817,930,1,0,1
0,818,1220,-1,0,1
0,819,4870,-1,0,1
0,820,1140,1,0,1
0,821,2390,-1,0,1
0,822,730,1,0,1
0,823,3100,1,0,1
0,824,1100,-1,0,1
0,825,2500,1,0,1
0,826,2170,-1,0,1
0,827,2800,1,0,1
0,828,5090,1,0,1
0,829,1160,1,0,1
0,830,2810,1,0,1
0,831,5810,-1,0,1
0,832,1130,-1,0,1
0,833,1320,1,0,1
0,834,2000,1,0,1
0,835,3940,1,0,1
0,836,5870,1,0,1
0,837,340,-1,0,1
0,838,820,1,0,1
0,839,720,-1,0,1
0,840,1380,-1,0,1
0,841,2090,1,0,1
0,842,2520,1,0,1
0,843,8030,1,0,1
0,844,6240,1,0,1
0,845,640,1,0,1
0,846,1510,1,0,1
0,847,2880,1,0,1
0,848,1760,1,0,1
0,849,840,1,0,1
0,850,8290,1,0,1
0,851,2290,-1,0,1
0,852,1370,1,0,1
0,853,2070,1,0,1
0,854,12850,1,0,1
0,855,420,1,0,1
0,856,2130,1,0,1
0,857,800,1,0,1
0,858,1960,1,0,1
0,859,1040,-1,0,1
0,860,8360,-1,0,1
0,861,620,-1,0,1
0,862,3790,1,0,1
0,863,2100,1,0,1
0,864,2440,1,0,1
0,865,3940,-1,0,1
0,866,1860,-1,0,1
0,867,6460,1,0,1
0,868,1960,1,0,1
0,869,2010,-1,0,1
0,870,4010,1,0,1
0,871,7900,1,0,1
0,872,1860,-1,0,1
0,873,8430,1,0,1
0,874,4120,-1,0,1
0,875,5010,-1,0,1
0,876,2320,1,0,1
0,877,4920,1,0,1
0,878,3010,1,0,1
0,879,2400,1,0,1
0,880,4890,1,0,1
0,881,1880,1,0,1
0,882,1170,1,0,1
0,883,2060,1,0,1
0,884,4840,1,0,1
0,885,3870,1,0,1
0,886,1760,1,0,1
0,887,1140,1,0,1
0,888,2940,1,0,1
0,889,3060,1,0,1
0,890,3110,1,0,1
0,891,1620,1,0,1
0,892,2890,1,0,1
0,893,620,1,0,1
0,894,3240,1,0,1
0,895,2300,1,0,1
0,896,2190,-1,0,1
0,897,550,-1,0,1
0,898,2490,1,0,1
0,899,4510,-1,0,1
0,900,2380,1,0,2
0,901,2330,1,0,2
0,902,2490,1,0,2
0,903,2310,-1,0,2
0,904,2270,-1,0,2
0,905,750,1,0,2
0,906,860,1,0,2
0,907,2820,1,0,2
0,908,2300,1,0,2
0,909,3750,1,0,2
0,910,900,1,0,2
0,911,2600,1,0,2
0,912,1540,1,0,2
0,913,1840,1,0,2
0,914,2190,1,0,2
0,915,2830,1,0,2
0,916,2930,1,0,2
0,917,1440,1,0,2
0,918,4590,1,0,2
0,919,1120,1,0,2
0,920,840,1,0,2
0,921,2100,1,0,2
0,922,3860,1,0,2
0,923,2430,1,0,2
0,924,520,1,0,2
0,925,1450,1,0,2
0,926,1280,1,0,2
0,927,2430,1,0,2
0,928,3940,1,0,2
0,929,2880,1,0,2
0,930,2010,1,0,2
0,931,4080,1,0,2
0,932,760,1,0,2
0,933,2090,1,0,2
0,934,1550,1,0,2
0,935,680,1,0,2
0,936,1570,1,0,2
0,937,2670,1,0,2
0,938,2070,1,0,2
0,939,1690,1,0,2
0,940,4550,1,0,2
0,941,4100,1,0,2
0,942,3820,1,0,2
0,943,830,1,0,2
0,944,1490,-1,0,2
0,945,2440,1,0,2
0,946,670,1,0,2
0,947,790,1,0,2
0,948,2310,1,0,2
0,949,1280,1,0,2
0,950,1790,-1,0,2
0,951,1990,1,0,2
0,952,800,1,0,2
0,953,1050,1,0,2
0,954,490,1,0,2
0,955,3620,1,0,2
0,956,3690,1,0,2
0,957,4360,-1,0,2
0,958,890,1,0,2
0,959,1690,1,0,2
0,960,1380,1,0,2
0,961,1750,1,0,2
0,962,810,-1,0,2
0,963,1970,1,0,2
0,964,2670,1,0,2
0,965,870,-1,0,2
0,966,690,1,0,2
0,967,2420,1,0,2
0,968,1450,1,0,2
0,969,4700,1,0,2
0,970,3380,1,0,2
0,971,1730,1,0,2
0,972,1280,-1,0,2
0,973,9060,1,0,2
0,974,1360,1,0,2
0,975,1370,1,0,2
0,976,910,1,0,2
0,977,630,1,0,2
0,978,490,1,0,2
0,979,3550,1,0,2
0,980,750,1,0,2
0,981,1410,1,0,2
0,982,1810,1,0,2
0,983,4310,1,0,2
0,984,930,-1,0,2
0,985,5290,1,0,2
0,986,3910,1,0,2
0,987,3560,1,0,2
0,988,730,-1,0,2
0,989,1800,1,0,2
0,990,1310,1,0,2
0,991,1270,1,0,2
0,992,2260,1,0,2
0,993,1820,1,0,2
0,994,1330,1,0,2
0,995,1020,1,0,2
0,996,3020,1,0,2
0,997,1440,1,0,2
0,998,2180,1,0,2
0,999,940,1,0,2
0,1000,2110,1,0,2
0,1001,1690,1,0,2
0,1002,2360,1,0,2
0,1003,1440,1,0,2
0,1004,540,1,0,2
0,1005,3400,1,0,2
0,1006,2070,-1,0,2
0,1007,1440,-1,0,2
0,1008,2070,1,0,2
0,1009,1050,1,0,2
0,1010,1420,1,0,2
0,1011,1290,1,0,2
0,1012,950,1,0,2
0,1013,1860,1,0,2
0,1014,2330,1,0,2
0,1015,1320,1,0,2
0,1016,1180,1,0,2
0,1017,2280,1,0,2
0,1018,3490,1,0,2
0,1019,1650,-1,0,2
0,1020,4930,1,0,2
0,1021,1100,1,0,2
0,1022,1860,1,0,2
0,1023,1530,-1,0,2
0,1024,1380,1,0,2
0,1025,1610,1,0,2
0,1026,4050,1,0,2
0,1027,1600,1,0,2
0,1028,3050,1,0,2
0,1029,3510,1,0,2
0,1030,780,-1,0,2
0,1031,4570,1,0,2
0,1032,1420,1,0,2
0,1033,2780,1,0,2
0,1034,830,1,0,2
0,1035,980,1,0,2
0,1036,960,1,0,2
0,1037,2540,1,0,2
0,1038,470,1,0,2
0,1039,850,1,0,2
0,1040,570,1,0,2
0,1041,960,1,0,2
0,1042,3890,1,0,2
0,1043,1320,1,0,2
0,1044,9150,-1,0,2
0,1045,910,1,0,2
0,1046,690,1,0,2
0,1047,3430,1,0,2
0,1048,1600,1,0,2
0,1049,8590,1,0,2
0,1050,2880,1,0,2
0,1051,2360,1,0,2
0,1052,790,1,0,2
0,1053,5000,1,0,2
0,1054,520,-1,0,2
0,1055,1660,1,0,2
0,1056,2230,1,0,2
0,1057,1580,1,0,2
0,1058,1210,1,0,2
0,1059,820,1,0,2
0,1060,1260,1,0,2
0,1061,1770,1,0,2
0,1062,730,1,0,2
0,1063,1520,1,0,2
0,1064,780,-1,0,2
0,1065,2400,-1,0,2
0,1066,570,1,0,2
0,1067,300,1,0,2
0,1068,6440,1,0,2
0,1069,690,1,0,2
0,1070,1460,1,0,2
0,1071,640,1,0,2
0,1072,2250,1,0,2
0,1073,3260,-1,0,2
0,1074,1340,-1,0,2
0,1075,1150,1,0,2
0,1076,1130,1,0,2
0,1077,1000,1,0,2
0,1078,2190,1,0,2
0,1079,980,1,0,2
0,1080,1310,-1,0,2
0,1081,2500,1,0,2
0,1082,1190,-1,0,2
0,1083,5640,1,0,2
0,1084,1020,1,0,2
0,1085,1350,1,0,2
0,1086,600,1,0,2
0,1087,2960,1,0,2
0,1088,2810,1,0,2
0,1089,2320,1,0,2
0,1090,1090,1,0,2
0,1091,1470,1,0,2
0,1092,2080,1,0,2
0,1093,570,1,0,2
0,1094,570,1,0,2
0,1095,4060,1,0,2
0,1096,1930,1,0,2
0,1097,2280,1,0,2
0,1098,2170,1,0,2
0,1099,1400,1,0,2
0,1100,8620,1,0,2
0,1101,7220,1,0,2
0,1102,3900,1,0,2
0,1103,990,1,0,2
0,1104,670,1,0,2
0,1105,2070,1,0,2
0,1106,1510,1,0,2
0,1107,1770,1,0,2
0,1108,710,1,0,2
0,1109,1140,1,0,2
0,1110,590,1,0,2
0,1111,1620,1,0,2
0,1112,3030,1,0,2
0,1113,3010,1,0,2
0,1114,1780,1,0,2
0,1115,2510,1,0,2
0,1116,2590,1,0,2
0,1117,1040,1,0,2
0,1118,5290,1,0,2
0,1119,2160,1,0,2
0,1120,5670,1,0,2
0,1121,2510,1,0,2
0,1122,1210,1,0,2
0,1123,1590,1,0,2
0,1124,1410,1,0,2
0,1125,810,1,0,2
0,1126,510,-1,0,2
0,1127,4000,1,0,2
0,1128,2390,1,0,2
0,1129,1120,1,0,2
0,1130,3010,1,0,2
0,1131,2880,1,0,2
0,1132,5920,1,0,2
0,1133,1310,1,0,2
0,1134,2380,1,0,2
0,1135,1380,1,0,2
0,1136,1270,1,0,2
0,1137,1210,1,0,2
0,1138,770,1,0,2
0,1139,1980,1,0,2
0,1140,3230,1,0,2
0,1141,3770,1,0,2
0,1142,2020,1,0,2
0,1143,2040,1,0,2
0,1144,4050,1,0,2
0,1145,1880,1,0,2
0,1146,1280,1,0,2
0,1147,1680,-1,0,2
0,1148,5170,1,0,2
0,1149,2100,1,0,2
0,1150,2120,-1,0,2
0,1151,1950,1,0,2
0,1152,2300,1,0,2
0,1153,2350,1,0,2
0,1154,1750,-1,0,2
0,1155,3310,1,0,2
0,1156,2370,1,0,2
0,1157,2190,1,0,2
0,1158,2350,1,0,2
0,1159,790,1,0,2
0,1160,2660,1,0,2
0,1161,1980,1,0,2
0,1162,9760,1,0,2
0,1163,1660,1,0,2
0,1164,1190,1,0,2
0,1165,500,1,0,2
0,1166,4160,1,0,2
0,1167,520,-1,0,2
0,1168,4680,1,0,2
0,1169,830,1,0,2
0,1170,1150,-1,0,2
0,1171,740,1,0,2
0,1172,1300,1,0,2
0,1173,670,1,0,2
0,1174,1000,1,0,2
0,1175,3210,1,0,2
0,1176,720,1,0,2
0,1177,2290,1,0,2
0,1178,5380,1,0,2
0,1179,2420,1,0,2
0,1180,1230,1,0,2
0,1181,2870,1,0,2
0,1182,1490,1,0,2
0,1183,1800,1,0,2
0,1184,1250,1,0,2
0,1185,2600,1,0,2
0,1186,5360,1,0,2
0,1187,740,1,0,2
0,1188,570,1,0,2
0,1189,1550,1,0,2
0,1190,1960,1,0,2
0,1191,600,1,0,2
0,1192,1760,-1,0,2
0,1193,1600,1,0,2
0,1194,1640,1,0,2
0,1195,3110,1,0,2
0,1196,3170,1,0,2
0,1197,1630,-1,0,2
0,1198,750,1,0,2
0,1199,2900,-1,0,2
0,1200,1070,1,0,2
0,1201,1160,-1,0,2
0,1202,2320,1,0,2
0,1203,1060,1,0,2
0,1204,4630,1,0,2
0,1205,1630,1,0,2
0,1206,1500,1,0,2
0,1207,850,1,0,2
0,1208,1760,1,0,2
0,1209,460,1,0,2
0,1210,4040,1,0,2
0,1211,1770,-1,0,2
0,1212,710,1,0,2
0,1213,810,1,0,2
0,1214,530,1,0,2
0,1215,1300,-1,0,2
0,1216,690,1,0,2
0,1217,1810,1,0,2
0,1218,2380,-1,0,2
0,1219,1500,1,0,2
0,1220,5380,1,0,2
0,1221,6860,1,0,2
0,1222,1230,1,0,2
0,1223,2290,1,0,2
0,1224,640,1,0,2
0,1225,1750,1,0,2
0,1226,3950,1,0,2
0,1227,1840,1,0,2
0,1228,3130,1,0,2
0,1229,600,-1,0,2
0,1230,930,1,0,2
0,1231,1110,1,0,2
0,1232,1030,1,0,2
0,1233,2940,1,0,2
0,1234,1990,1,0,2
0,1235,1150,1,0,2
0,1236,9330,1,0,2
0,1237,1350,1,0,2
0,1238,1110,1,0,2
0,1239,750,1,0,2
0,1240,1270,1,0,2
0,1241,5860,1,0,2
0,1242,2900,1,0,2
0,1243,1310,1,0,2
0,1244,7460,1,0,2
0,1245,1500,1,0,2
0,1246,3040,1,0,2
0,1247,780,-1,0,2
0,1248,1280,1,0,2
0,1249,4870,1,0,2
0,1250,930,1,0,2
0,1251,610,1,0,2
0,1252,2060,1,0,2
0,1253,4210,1,0,2
0,1254,2240,1,0,2
0,1255,3980,1,0,2
0,1256,3250,1,0,2
0,1257,2300,1,0,2
0,1258,4210,1,0,2
0,1259,2850,1,0,2
0,1260,1810,1,0,2
0,1261,4680,1,0,2
0,1262,4980,1,0,2
0,1263,2100,1,0,2
0,1264,1090,1,0,2
0,1265,3290,1,0,2
0,1266,2320,1,0,2
0,1267,1310,1,0,2
0,1268,1780,1,0,2
0,1269,2230,-1,0,2
0,1270,1230,1,0,2
0,1271,2440,1,0,2
0,1272,1690,1,0,2
0,1273,1370,1,0,2
0,1274,2740,1,0,2
0,1275,3670,-1,0,2
0,1276,7530,1,0,2
0,1277,1500,1,0,2
0,1278,3750,1,0,2
0,1279,720,1,0,2
0,1280,450,1,0,2
0,1281,4310,1,0,2
0,1282,1500,-1,0,2
0,1283,7930,1,0,2
0,1284,1720,1,0,2
0,1285,2120,1,0,2
0,1286,2590,1,0,2
0,1287,660,1,0,2
0,1288,5710,1,0,2
0,1289,2160,1,0,2
0,1290,1420,1,0,2
0,1291,1550,1,0,2
0,1292,1130,1,0,2
0,1293,920,1,0,2
0,1294,1280,1,0,2
0,1295,2520,-1,0,2
0,1296,3750,1,0,2
0,1297,2050,1,0,2
0,1298,2300,1,0,2
0,1299,1150,1,0,2
0,1300,7460,1,0,2
0,1301,720,1,0,2
0,1302,6350,1,0,2
0,1303,4990,1,0,2
0,1304,2200,1,0,2
0,1305,1300,-1,0,2
0,1306,3350,-1,0,2
0,1307,670,1,0,2
0,1308,1990,1,0,2
0,1309,860,1,0,2
0,1310,5110,1,0,2
0,1311,1860,1,0,2
0,1312,410,1,0,2
0,1313,2700,-1,0,2
0,1314,3790,1,0,2
0,1315,3370,1,0,2
0,1316,1350,1,0,2
0,1317,3850,1,0,2
0,1318,1220,1,0,2
0,1319,3290,1,0,2
0,1320,3530,1,0,2
0,1321,910,1,0,2
0,1322,2430,1,0,2
0,1323,1700,1,0,2
0,1324,1010,1,0,2
0,1325,3730,1,0,2
0,1326,2260,1,0,2
0,1327,1890,1,0,2
0,1328,830,-1,0,2
0,1329,2010,1,0,2
0,1330,660,1,0,2
0,1331,1100,1,0,2
0,1332,2230,1,0,2
0,1333,1530,1,0,2
0,1334,1480,1,0,2
0,1335,870,1,0,2
0,1336,1850,1,0,2
0,1337,3150,1,0,2
0,1338,2020,1,0,2
0,1339,5430,1,0,2
0,1340,3620,1,0,2
0,1341,3100,1,0,2
0,1342,860,1,0,2
0,1343,3110,1,0,2
0,1344,330,1,0,2
0,1345,1300,1,0,2
0,1346,2320,1,0,2
0,1347,740,1,0,2
0,1348,1320,1,0,2
0,1349,1390,1,0,2
0,1350,1060,-1,0,2
0,1351,2050,1,0,2
0,1352,3580,1,0,2
0,1353,1040,1,0,2
0,1354,2270,1,0,2
0,1355,540,1,0,2
0,1356,2540,1,0,2
0,1357,2530,1,0,2
0,1358,870,1,0,2
0,1359,1440,1,0,2
0,1360,7700,1,0,2
0,1361,1310,1,0,2
0,1362,320,-1,0,2
0,1363,3640,1,0,2
0,1364,670,1,0,2
0,1365,1500,-1,0,2
0,1366,860,1,0,2
0,1367,1680,1,0,2
0,1368,1800,1,0,2
0,1369,1320,1,0,2
0,1370,2090,-1,0,2
0,1371,1560,1,0,2
0,1372,970,1,0,2
0,1373,1430,1,0,2
0,1374,740,1,0,2
0,1375,1710,1,0,2
0,1376,2630,1,0,2
0,1377,1360,1,0,2
0,1378,3220,1,0,2
0,1379,2700,-1,0,2
0,1380,1560,-1,0,2
0,1381,3130,1,0,2
0,1382,600,1,0,2
0,1383,1250,1,0,2
0,1384,1390,1,0,2
0,1385,1120,1,0,2
0,1386,1100,1,0,2
0,1387,980,1,0,2
0,1388,930,-1,0,2
0,1389,1330,1,0,2
0,1390,750,1,0,2
0,1391,3310,1,0,2
0,1392,1730,1,0,2
0,1393,1120,1,0,2
0,1394,1100,1,0,2
0,1395,4970,1,0,2
0,1396,3870,1,0,2
0,1397,6220,1,0,2
0,1398,480,1,0,2
0,1399,2040,1,0,2
0,1400,940,-1,0,2
0,1401,1840,1,0,2
0,1402,1680,-1,0,2
0,1403,1630,1,0,2
0,1404,1490,1,0,2
0,1405,710,1,0,2
0,1406,500,1,0,2
0,1407,1590,1,0,2
0,1408,3100,1,0,2
0,1409,2680,1,0,2
0,1410,2750,1,0,2
0,1411,730,1,0,2
0,1412,2810,1,0,2
0,1413,1280,1,0,2
0,1414,800,1,0,2
0,1415,1420,1,0,2
0,1416,4600,1,0,2
0,1417,2850,1,0,2
0,1418,1670,1,0,2
0,1419,2440,1,0,2
0,1420,4230,1,0,2
0,1421,1470,1,0,2
0,1422,1150,-1,0,2
0,1423,2980,1,0,2
0,1424,1940,-1,0,2
0,1425,2040,1,0,2
0,1426,600,1,0,2
0,1427,2200,1,0,2
0,1428,5700,-1,0,2
0,1429,700,1,0,2
0,1430,570,-1,0,2
0,1431,3530,-1,0,2
0,1432,960,1,0,2
0,1433,2220,1,0,2
0,1434,9440,1,0,2
0,1435,1460,1,0,2
0,1436,450,-1,0,2
0,1437,4810,1,0,2
0,1438,700,1,0,2
0,1439,2930,1,0,2
0,1440,2910,1,0,2
0,1441,1810,1,0,2
0,1442,1710,1,0,2
0,1443,1870,1,0,2
0,1444,940,1,0,2
0,1445,410,1,0,2
0,1446,1050,1,0,2
0,1447,820,1,0,2
0,1448,320,1,0,2
0,1449,640,-1,0,2
0,1450,1830,1,0,2
0,1451,550,1,0,2
0,1452,1310,1,0,2
0,1453,3600,-1,0,2
0,1454,1840,1,0,2
0,1455,1700,1,0,2
0,1456,1170,-1,0,2
0,1457,1140,1,0,2
0,1458,540,1,0,2
0,1459,4080,1,0,2
0,1460,810,1,0,2
0,1461,1900,1,0,2
0,1462,1290,1,0,2
0,1463,570,1,0,2
0,1464,2980,1,0,2
0,1465,1330,1,0,2
0,1466,1000,1,0,2
0,1467,2080,1,0,2
0,1468,540,1,0,2
0,1469,1780,1,0,2
0,1470,1120,1,0,2
0,1471,1330,1,0,2
0,1472,4080,1,0,2
0,1473,2320,1,0,2
0,1474,2240,1,0,2
0,1475,840,1,0,2
0,1476,1830,1,0,2
0,1477,1490,1,0,2
0,1478,1780,1,0,2
0,1479,910,1,0,2
0,1480,1710,1,0,2
0,1481,320,-1,0,2
0,1482,1130,-1,0,2
0,1483,3400,1,0,2
0,1484,4690,1,0,2
0,1485,740,1,0,2
0,1486,1580,1,0,2
0,1487,1510,1,0,2
0,1488,460,1,0,2
0,1489,3150,1,0,2
0,1490,1520,1,0,2
0,1491,3070,1,0,2
0,1492,5940,1,0,2
0,1493,590,1,0,2
0,1494,1840,1,0,2
0,1495,1390,1,0,2
0,1496,1210,1,0,2
0,1497,2300,1,0,2
0,1498,3250,1,0,2
0,1499,5480,1,0,2
0,1500,2470,1,0,3
0,1501,1990,1,0,3
0,1502,870,1,0,3
0,1503,1820,1,0,3
0,1504,1150,1,0,3
0,1505,1150,1,0,3
0,1506,1960,1,0,3
0,1507,1440,1,0,3
0,1508,860,-1,0,3
0,1509,1670,1,0,3
0,1510,950,1,0,3
0,1511,1520,1,0,3
0,1512,8360,1,0,3
0,1513,1710,1,0,3
0,1514,790,1,0,3
0,1515,2700,1,0,3
0,1516,4490,1,0,3
0,1517,2210,1,0,3
0,1518,1900,1,0,3
0,1519,4210,1,0,3
0,1520,1930,1,0,3
0,1521,1050,1,0,3
0,1522,540,1,0,3
0,1523,410,1,0,3
0,1524,820,1,0,3
0,1525,2820,1,0,3
0,1526,1090,1,0,3
0,1527,3020,1,0,3
0,1528,680,1,0,3
0,1529,830,1,0,3
0,1530,700,1,0,3
0,1531,3380,1,0,3
0,1532,1940,1,0,3
0,1533,2230,1,0,3
0,1534,1280,1,0,3
0,1535,3400,1,0,3
0,1536,2670,1,0,3
0,1537,1680,-1,0,3
0,1538,1830,1,0,3
0,1539,860,1,0,3
0,1540,1200,-1,0,3
0,1541,710,1,0,3
0,1542,1370,1,0,3
0,1543,680,1,0,3
0,1544,2240,1,0,3
0,1545,500,1,0,3
0,1546,8120,1,0,3
0,1547,1420,1,0,3
0,1548,1260,1,0,3
0,1549,2140,1,0,3
0,1550,1920,1,0,3
0,1551,5770,1,0,3
0,1552,810,1,0,3
0,1553,3040,1,0,3
0,1554,1640,1,0,3
0,1555,2500,1,0,3
0,1556,1580,1,0,3
0,1557,1860,1,0,3
0,1558,2280,1,0,3
0,1559,600,1,0,3
0,1560,1860,1,0,3
0,1561,2610,1,0,3
0,1562,1420,1,0,3
0,1563,2060,1,0,3
0,1564,410,-1,0,3
0,1565,2210,1,0,3
0,1566,1410,1,0,3
0,1567,1050,1,0,3
0,1568,500,1,0,3
0,1569,3950,1,0,3
0,1570,1770,1,0,3
0,1571,690,1,0,3
0,1572,910,1,0,3
0,1573,820,-1,0,3
0,1574,1300,1,0,3
0,1575,1420,1,0,3
0,1576,1630,1,0,3
0,1577,750,1,0,3
0,1578,1800,1,0,3
0,1579,1070,1,0,3
0,1580,7370,1,0,3
0,1581,1430,1,0,3
0,1582,2870,1,0,3
0,1583,440,1,0,3
0,1584,1350,1,0,3
0,1585,2990,1,0,3
0,1586,2960,1,0,3
0,1587,4420,-1,0,3
0,1588,1440,1,0,3
0,1589,2050,1,0,3
0,1590,1600,1,0,3
0,1591,570,1,0,3
0,1592,2110,1,0,3
0,1593,1890,1,0,3
0,1594,1040,1,0,3
0,1595,1730,1,0,3
0,1596,2610,1,0,3
0,1597,950,1,0,3
0,1598,2320,1,0,3
0,1599,1530,1,0,3
0,1600,890,1,0,3
0,1601,2540,1,0,3
0,1602,1560,1,0,3
0,1603,990,1,0,3
0,1604,1310,1,0,3
0,1605,1110,1,0,3
0,1606,1190,1,0,3
0,1607,1830,1,0,3
0,1608,1370,1,0,3
0,1609,880,1,0,3
0,1610,1490,1,0,3
0,1611,1930,1,0,3
0,1612,1560,1,0,3
0,1613,1050,1,0,3
0,1614,1230,1,0,3
0,1615,2320,1,0,3
0,1616,1720,1,0,3
0,1617,1010,1,0,3
0,1618,1910,1,0,3
0,1619,4220,1,0,3
0,1620,1180,1,0,3
0,1621,2530,1,0,3
0,1622,2460,1,0,3
0,1623,590,1,0,3
0,1624,4800,1,0,3
0,1625,590,1,0,3
0,1626,1380,1,0,3
0,1627,4400,1,0,3
0,1628,2350,1,0,3
0,1629,1870,1,0,3
0,1630,760,-1,0,3
0,1631,2550,1,0,3
0,1632,1140,1,0,3
0,1633,1790,1,0,3
0,1634,1380,1,0,3
0,1635,1690,1,0,3
0,1636,1560,1,0,3
0,1637,1100,1,0,3
0,1638,1070,1,0,3
0,1639,2280,1,0,3
0,1640,1680,1,0,3
0,1641,2760,1,0,3
0,1642,1240,1,0,3
0,1643,1950,1,0,3
0,1644,1920,-1,0,3
0,1645,830,1,0,3
0,1646,2840,1,0,3
0,1647,950,1,0,3
0,1648,2580,1,0,3
0,1649,1560,1,0,3
0,1650,2790,1,0,3
0,1651,1500,1,0,3
0,1652,2890,1,0,3
0,1653,1510,1,0,3
0,1654,1480,1,0,3
0,1655,930,1,0,3
0,1656,980,1,0,3
0,1657,2230,1,0,3
0,1658,2630,1,0,3
0,1659,1530,1,0,3
0,1660,1200,1,0,3
0,1661,990,1,0,3
0,1662,900,1,0,3
0,1663,5960,1,0,3
0,1664,790,1,0,3
0,1665,900,1,0,3
0,1666,960,1,0,3
0,1667,1920,1,0,3
0,1668,2320,1,0,3
0,1669,2720,1,0,3
0,1670,1250,1,0,3
0,1671,4140,1,0,3
0,1672,1080,-1,0,3
0,1673,1520,1,0,3
0,1674,3030,1,0,3
0,1675,730,1,0,3
0,1676,600,1,0,3
0,1677,370,1,0,3
0,1678,1720,1,0,3
0,1679,3590,-1,0,3
0,1680,850,1,0,3
0,1681,1760,1,0,3
0,1682,2700,1,0,3
0,1683,1230,1,0,3
0,1684,1120,1,0,3
0,1685,590,1,0,3
0,1686,840,1,0,3
0,1687,930,1,0,3
0,1688,840,1,0,3
0,1689,510,1,0,3
0,1690,2160,1,0,3
0,1691,2690,-1,0,3
0,1692,810,1,0,3
0,1693,720,1,0,3
0,1694,1490,1,0,3
0,1695,1120,1,0,3
0,1696,2640,1,0,3
0,1697,1050,1,0,3
0,1698,2400,1,0,3
0,1699,3210,1,0,3
0,1700,1090,1,0,3
0,1701,1960,1,0,3
0,1702,2940,1,0,3
0,1703,1180,1,0,3
0,1704,900,1,0,3
0,1705,1550,1,0,3
0,1706,1900,1,0,3
0,1707,4410,1,0,3
0,1708,540,1,0,3
0,1709,2930,1,0,3
0,1710,1520,1,0,3
0,1711,1380,1,0,3
0,1712,510,1,0,3
0,1713,640,1,0,3
0,1714,690,1,0,3
0,1715,1130,-1,0,3
0,1716,1250,1,0,3
0,1717,820,1,0,3
0,1718,370,1,0,3
0,1719,1280,1,0,3
0,1720,2240,1,0,3
0,1721,1410,1,0,3
0,1722,1670,1,0,3
0,1723,2480,1,0,3
0,1724,1700,1,0,3
0,1725,1550,1,0,3
0,1726,1230,1,0,3
0,1727,630,1,0,3
0,1728,2750,1,0,3
0,1729,4220,1,0,3
0,1730,1280,1,0,3
0,1731,990,1,0,3
0,1732,2980,1,0,3
0,1733,1070,1,0,3
0,1734,990,1,0,3
0,1735,1910,1,0,3
0,1736,1520,1,0,3
0,1737,3660,1,0,3
0,1738,2990,1,0,3
0,1739,1040,1,0,3
0,1740,1370,1,0,3
0,1741,2030,1,0,3
0,1742,1990,1,0,3
0,1743,2120,1,0,3
0,1744,790,1,0,3
0,1745,3840,1,0,3
0,1746,2870,1,0,3
0,1747,530,1,0,3
0,1748,1470,1,0,3
0,1749,840,1,0,3
0,1750,1300,1,0,3
0,1751,1780,1,0,3
0,1752,1430,1,0,3
0,1753,2170,1,0,3
0,1754,430,1,0,3
0,1755,770,1,0,3
0,1756,4640,1,0,3
0,1757,3100,1,0,3
0,1758,800,1,0,3
0,1759,4560,1,0,3
0,1760,710,-1,0,3
0,1761,1440,1,0,3
0,1762,3250,1,0,3
0,1763,1240,1,0,3
0,1764,1930,1,0,3
0,1765,2380,1,0,3
0,1766,3300,1,0,3
0,1767,1280,1,0,3
0,1768,780,1,0,3
0,1769,2600,1,0,3
0,1770,1250,1,0,3
0,1771,7590,-1,0,3
0,1772,5750,1,0,3
0,1773,630,1,0,3
0,1774,730,1,0,3
0,1775,1940,1,0,3
0,1776,2120,1,0,3
0,1777,2390,1,0,3
0,1778,2550,1,0,3
0,1779,2420,1,0,3
0,1780,320,-1,0,3
0,1781,960,1,0,3
0,1782,770,1,0,3
0,1783,2730,1,0,3
0,1784,700,1,0,3
0,1785,3260,1,0,3
0,1786,1270,1,0,3
0,1787,2290,1,0,3
0,1788,1280,1,0,3
0,1789,2150,1,0,3
0,1790,1320,1,0,3
0,1791,2380,1,0,3
0,1792,1450,1,0,3
0,1793,1270,1,0,3
0,1794,2390,1,0,3
0,1795,840,1,0,3
0,1796,680,1,0,3
0,1797,3280,1,0,3
0,1798,1190,1,0,3
0,1799,970,1,0,3
0,1800,970,1,1,0
0,1801,2350,1,1,0
0,1802,6810,-1,1,0
0,1803,1630,1,1,0
0,1804,1880,-1,1,0
0,1805,1510,-1,1,0
0,1806,1630,-1,1,0
0,1807,5890,1,1,0
0,1808,4480,-1,1,0
0,1809,1700,-1,1,0
0,1810,1540,-1,1,0
0,1811,2540,-1,1,0
0,1812,530,1,1,0
0,1813,4920,1,1,0
0,1814,4460,-1,1,0
0,1815,1960,-1,1,0
0,1816,5580,-1,1,0
0,1817,2080,-1,1,0
0,1818,3010,-1,1,0
0,1819,3450,-1,1,0
0,1820,1100,-1,1,0
0,1821,2060,-1,1,0
0,1822,6320,-1,1,0
0,1823,1350,-1,1,0
0,1824,3620,-1,1,0
0,1825,1970,-1,1,0
0,1826,2080,-1,1,0
0,1827,1150,-1,1,0
0,1828,3090,-1,1,0
0,1829,1130,-1,1,0
0,1830,4980,1,1,0
0,1831,13040,-1,1,0
0,1832,1710,-1,1,0
0,1833,1900,-1,1,0
0,1834,1280,1,1,0
0,1835,10410,-1,1,0
0,1836,1140,-1,1,0
0,1837,3550,-1,1,0
0,1838,3340,-1,1,0
0,1839,2430,1,1,0
0,1840,3810,-1,1,0
0,1841,1840,-1,1,0
0,1842,1290,-1,1,0
0,1843,2980,-1,1,0
0,1844,3300,1,1,0
0,1845,4060,-1,1,0
0,1846,3970,-1,1,0
0,1847,4780,-1,1,0
0,1848,890,1,1,0
0,1849,1060,-1,1,0
0,1850,1750,-1,1,0
0,1851,1910,1,1,0
0,1852,3930,-1,1,0
0,1853,2690,1,1,0
0,1854,2440,-1,1,0
0,1855,1140,-1,1,0
0,1856,1230,-1,1,0
0,1857,3560,-1,1,0
0,1858,6420,-1,1,0
0,1859,1690,-1,1,0
0,1860,1050,-1,1,0
0,1861,2030,-1,1,0
0,1862,1800,-1,1,0
0,1863,1750,1,1,0
0,1864,4050,-1,1,0
0,1865,3680,1,1,0
0,1866,1250,1,1,0
0,1867,2530,1,1,0
0,1868,3250,-1,1,0
0,1869,8310,-1,1,0
0,1870,2960,-1,1,0
0,1871,620,1,1,0
0,1872,3000,-1,1,0
0,1873,3970,-1,1,0
0,1874,3580,-1,1,0
0,1875,3250,1,1,0
0,1876,1610,-1,1,0
0,1877,520,1,1,0
0,1878,2270,-1,1,0
0,1879,10570,-1,1,0
0,1880,1630,-1,1,0
0,1881,640,1,1,0
0,1882,3660,-1,1,0
0,1883,3610,-1,1,0
0,1884,6620,-1,1,0
0,1885,2100,1,1,0
0,1886,4920,-1,1,0
0,1887,1930,-1,1,0
0,1888,1730,-1,1,0
0,1889,740,-1,1,0
0,1890,610,-1,1,0
0,1891,3290,1,1,0
0,1892,1320,1,1,0
0,1893,2580,1,1,0
0,1894,590,-1,1,0
0,1895,3900,1,1,0
0,1896,1040,1,1,0
0,1897,1490,-1,1,0
0,1898,2590,-1,1,0
0,1899,4330,1,1,0
0,1900,600,1,1,0
0,1901,780,-1,1,0
0,1902,4210,1,1,0
0,1903,1530,-1,1,0
0,1904,10830,1,1,0
0,1905,1270,-1,1,0
0,1906,1210,-1,1,0
0,1907,670,-1,1,0
0,1908,2820,-1,1,0
0,1909,1090,-1,1,0
0,1910,710,-1,1,0
0,1911,2240,-1,1,0
0,1912,1860,-1,1,0
0,1913,690,-1,1,0
0,1914,1330,-1,1,0
0,1915,2010,1,1,0
0,1916,4280,-1,1,0
0,1917,3530,-1,1,0
0,1918,4470,-1,1,0
0,1919,3210,1,1,0
0,1920,5790,-1,1,0
0,1921,1720,-1,1,0
0,1922,1030,-1,1,0
0,1923,500,-1,1,0
0,1924,540,1,1,0
0,1925,2100,1,1,0
0,1926,2480,-1,1,0
0,1927,690,-1,1,0
0,1928,1080,-1,1,0
0,1929,520,-1,1,0
0,1930,830,1,1,0
0,1931,1070,-1,1,0
0,1932,4320,1,1,0
0,1933,1810,-1,1,0
0,1934,1380,-1,1,0
0,1935,6680,-1,1,0
0,1936,3000,-1,1,0
0,1937,950,-1,1,0
0,1938,2200,1,1,0
0,1939,1430,-1,1,0
0,1940,4360,-1,1,0
0,1941,640,-1,1,0
0,1942,5970,-1,1,0
0,1943,520,1,1,0
0,1944,1450,-1,1,0
0,1945,4100,-1,1,0
0,1946,380,-1,1,0
0,1947,1870,-1,1,0
0,1948,2040,-1,1,0
0,1949,6510,-1,1,0
0,1950,1420,-1,1,0
0,1951,990,1,1,0
0,1952,2570,-1,1,0
0,1953,2040,-1,1,0
0,1954,6560,1,1,0
0,1955,1090,1,1,0
0,1956,1970,-1,1,0
0,1957,7250,-1,1,0
0,1958,4480,1,1,0
0,1959,3460,1,1,0
0,1960,2310,1,1,0
0,1961,1520,-1,1,0
0,1962,1330,-1,1,0
0,1963,3150,-1,1,0
0,1964,9820,-1,1,0
0,1965,2920,-1,1,0
0,1966,2340,1,1,0
0,1967,640,1,1,0
0,1968,4700,-1,1,0
0,1969,1510,-1,1,0
0,1970,2150,1,1,0
0,1971,2640,1,1,0
0,1972,2650,-1,1,0
0,1973,3470,1,1,0
0,1974,510,-1,1,0
0,1975,13180,-1,1,0
0,1976,2720,-1,1,0
0,1977,4940,-1,1,0
0,1978,3150,1,1,0
0,1979,1750,1,1,0
0,1980,3590,-1,1,0
0,1981,3140,-1,1,0
0,1982,1220,-1,1,0
0,1983,1990,-1,1,0
0,1984,7090,1,1,0
0,1985,250,1,1,0
0,1986,2970,-1,1,0
0,1987,1860,-1,1,0
0,1988,1600,1,1,0
0,1989,1520,-1,1,0
0,1990,900,-1,1,0
0,1991,1690,-1,1,0
0,1992,4250,-1,1,0
0,1993,3380,1,1,0
0,1994,1580,-1,1,0
0,1995,2050,-1,1,0
0,1996,2200,-1,1,0
0,1997,960,-1,1,0
0,1998,5770,-1,1,0
0,1999,5060,-1,1,0
0,2000,1430,1,1,0
0,2001,5040,-1,1,0
0,2002,3020,-1,1,0
0,2003,1950,-1,1,0
0,2004,8420,-1,1,0
0,2005,2730,1,1,0
0,2006,2600,1,1,0
0,2007,1720,-1,1,0
0,2008,1670,-1,1,0
0,2009,2310,-1,1,0
0,2010,4390,-1,1,0
0,2011,2460,-1,1,0
0,2012,2840,-1,1,0
0,2013,2070,-1,1,0
0,2014,1230,-1,1,0
0,2015,620,-1,1,0
0,2016,2660,-1,1,0
0,2017,680,-1,1,0
0,2018,5100,1,1,0
0,2019,1880,1,1,0
0,2020,1480,-1,1,0
0,2021,870,-1,1,0
0,2022,3730,1,1,0
0,2023,6870,-1,1,0
0,2024,1800,-1,1,0
0,2025,1220,-1,1,0
0,2026,3430,1,1,0
0,2027,870,1,1,0
0,2028,5010,-1,1,0
0,2029,2120,-1,1,0
0,2030,2400,1,1,0
0,2031,1820,1,1,0
0,2032,780,-1,1,0
0,2033,1630,-1,1,0
0,2034,6810,-1,1,0
0,2035,1820,-1,1,0
0,2036,2020,-1,1,0
0,2037,2060,-1,1,0
0,2038,650,-1,1,0
0,2039,1420,-1,1,0
0,2040,1300,-1,1,0
0,2041,2610,1,1,0
0,2042,3100,-1,1,0
0,2043,4620,-1,1,0
0,2044,760,-1,1,0
0,2045,2890,1,1,0
0,2046,810,-1,1,0
0,2047,2450,-1,1,0
0,2048,1220,-1,1,0
0,2049,4370,-1,1,0
0,2050,5120,-1,1,0
0,2051,1800,-1,1,0
0,2052,3450,1,1,0
0,2053,5060,1,1,0
0,2054,1020,1,1,0
0,2055,660,1,1,0
0,2056,4380,-1,1,0
0,2057,510,-1,1,0
0,2058,810,-1,1,0
0,2059,3660,-1,1,0
0,2060,3460,-1,1,0
0,2061,1450,-1,1,0
0,2062,1410,-1,1,0
0,2063,680,-1,1,0
0,2064,1710,-1,1,0
0,2065,2170,-1,1,0
0,2066,5350,-1,1,0
0,2067,2310,-1,1,0
0,2068,1210,-1,1,0
0,2069,4280,-1,1,0
0,2070,610,-1,1,0
0,2071,570,-1,1,0
0,2072,2580,-1,1,0
0,2073,6130,-1,1,0
0,2074,340,-1,1,0
0,2075,990,-1,1,0
0,2076,830,-1,1,0
0,2077,4570,1,1,0
0,2078,3170,-1,1,0
0,2079,3790,-1,1,0
0,2080,9630,-1,1,0
0,2081,1770,-1,1,0
0,2082,3100,-1,1,0
0,2083,390,1,1,0
0,2084,2690,-1,1,0
0,2085,2110,-1,1,0
0,2086,2890,-1,1,0
0,2087,2000,-1,1,0
0,2088,2740,-1,1,0
0,2089,1760,-1,1,0
0,2090,1040,-1,1,0
0,2091,3420,-1,1,0
0,2092,4370,-1,1,0
0,2093,1310,1,1,0
0,2094,340,1,1,0
0,2095,2790,-1,1,0
0,2096,4690,1,1,0
0,2097,310,1,1,0
0,2098,1140,-1,1,0
0,2099,2040,-1,1,0
0,2100,1840,-1,1,0
0,2101,550,-1,1,0
0,2102,860,1,1,0
0,2103,6250,-1,1,0
0,2104,3100,-1,1,0
0,2105,2400,1,1,0
0,2106,860,-1,1,0
0,2107,8740,1,1,0
0,2108,1710,-1,1,0
0,2109,1680,-1,1,0
0,2110,910,-1,1,0
0,2111,4570,-1,1,0
0,2112,3050,-1,1,0
0,2113,2770,-1,1,0
0,2114,4470,-1,1,0
0,2115,4690,1,1,0
0,2116,690,-1,1,0
0,2117,2740,-1,1,0
0,2118,2760,-1,1,0
0,2119,3660,-1,1,0
0,2120,3060,-1,1,0
0,2121,1080,-1,1,0
0,2122,600,-1,1,0
0,2123,3430,1,1,0
0,2124,610,-1,1,0
0,2125,2150,-1,1,0
0,2126,2430,-1,1,0
0,2127,5510,-1,1,0
0,2128,5960,-1,1,0
0,2129,1340,-1,1,0
0,2130,1200,-1,1,0
0,2131,720,-1,1,0
0,2132,3940,1,1,0
0,2133,1710,1,1,0
0,2134,610,-1,1,0
0,2135,1290,-1,1,0
0,2136,2230,-1,1,0
0,2137,710,-1,1,0
0,2138,1030,-1,1,0
0,2139,6300,-1,1,0
0,2140,1830,-1,1,0
0,2141,1270,1,1,0
0,2142,1450,-1,1,0
0,2143,3700,1,1,0
0,2144,2560,-1,1,0
0,2145,1970,-1,1,0
0,2146,3580,-1,1,0
0,2147,500,-1,1,0
0,2148,1090,1,1,0
0,2149,2670,-1,1,0
0,2150,1420,-1,1,0
0,2151,2510,-1,1,0
0,2152,2420,-1,1,0
0,2153,4340,-1,1,0
0,2154,310,-1,1,0
0,2155,1150,-1,1,0
0,2156,2890,1,1,0
0,2157,770,1,1,0
0,2158,890,-1,1,0
0,2159,1600,-1,1,0
0,2160,700,-1,1,0
0,2161,510,1,1,0
0,2162,920,-1,1,0
0,2163,7340,1,1,0
0,2164,8030,-1,1,0
0,2165,4450,-1,1,0
0,2166,1550,-1,1,0
0,2167,1090,-1,1,0
0,2168,3430,-1,1,0
0,2169,800,-1,1,0
0,2170,880,1,1,0
0,2171,1540,1,1,0
0,2172,2560,-1,1,0
0,2173,1350,-1,1,0
0,2174,11350,-1,1,0
0,2175,1620,1,1,0
0,2176,4000,-1,1,0
0,2177,2680,-1,1,0
0,2178,1120,-1,1,0
0,2179,620,-1,1,0
0,2180,790,1,1,0
0,2181,850,1,1,0
0,2182,1960,-1,1,0
0,2183,2310,-1,1,0
0,2184,530,-1,1,0
0,2185,2910,-1,1,0
0,2186,3370,1,1,0
0,2187,2320,-1,1,0
0,2188,2650,1,1,0
0,2189,1720,-1,1,0
0,2190,1390,-1,1,0
0,2191,1380,-1,1,0
0,2192,2060,-1,1,0
0,2193,1910,-1,1,0
0,2194,1000,-1,1,0
0,2195,520,1,1,0
0,2196,3380,-1,1,0
0,2197,2170,-1,1,0
0,2198,2780,-1,1,0
0,2199,10200,1,1,0
0,2200,670,-1,1,0
0,2201,3480,1,1,0
0,2202,1840,-1,1,0
0,2203,1540,-1,1,0
0,2204,3470,-1,1,0
0,2205,2980,-1,1,0
0,2206,1040,-1,1,0
0,2207,3230,-1,1,0
0,2208,5250,-1,1,0
0,2209,810,-1,1,0
0,2210,560,-1,1,0
0,2211,910,-1,1,0
0,2212,10160,-1,1,0
0,2213,2280,1,1,0
0,2214,970,-1,1,0
0,2215,1840,-1,1,0
0,2216,890,1,1,0
0,2217,1690,-1,1,0
0,2218,6800,1,1,0
0,2219,6690,-1,1,0
0,2220,2050,-1,1,0
0,2221,1170,1,1,0
0,2222,1190,-1,1,0
0,2223,4730,-1,1,0
0,2224,630,-1,1,0
0,2225,3030,-1,1,0
0,2226,1240,-1,1,0
0,2227,1340,-1,1,0
0,2228,3570,-1,1,0
0,2229,1930,1,1,0
0,2230,1040,-1,1,0
0,2231,4140,1,1,0
0,2232,610,-1,1,0
0,2233,690,1,1,0
0,2234,3650,-1,1,0
0,2235,2210,-1,1,0
0,2236,1160,1,1,0
0,2237,7220,-1,1,0
0,2238,1370,-1,1,0
0,2239,2460,-1,1,0
0,2240,3560,-1,1,0
0,2241,2420,1,1,0
0,2242,2630,-1,1,0
0,2243,7080,-1,1,0
0,2244,1310,-1,1,0
0,2245,11850,-1,1,0
0,2246,480,1,1,0
0,2247,750,-1,1,0
0,2248,1820,-1,1,0
0,2249,630,-1,1,0
0,2250,6340,-1,1,0
0,2251,1760,-1,1,0
0,2252,430,1,1,0
0,2253,3350,1,1,0
0,2254,4950,-1,1,0
0,2255,3480,1,1,0
0,2256,4920,1,1,0
0,2257,2310,-1,1,0
0,2258,9820,-1,1,0
0,2259,1360,-1,1,0
0,2260,4900,-1,1,0
0,2261,1950,-1,1,0
0,2262,2530,-1,1,0
0,2263,4500,-1,1,0
0,2264,360,-1,1,0
0,2265,2140,-1,1,0
0,2266,2260,1,1,0
0,2267,470,-1,1,0
0,2268,3460,-1,1,0
0,2269,890,-1,1,0
0,2270,3240,-1,1,0
0,2271,3700,-1,1,0
0,2272,460,-1,1,0
0,2273,2870,-1,1,0
0,2274,1580,-1,1,0
0,2275,1240,-1,1,0
0,2276,1760,-1,1,0
0,2277,4150,1,1,0
0,2278,2080,-1,1,0
0,2279,1460,1,1,0
0,2280,5350,-1,1,0
0,2281,750,-1,1,0
0,2282,2890,-1,1,0
0,2283,3070,-1,1,0
0,2284,1230,-1,1,0
0,2285,2970,-1,1,0
0,2286,3790,-1,1,0
0,2287,2370,1,1,0
0,2288,7280,-1,1,0
0,2289,1170,-1,1,0
0,2290,1390,1,1,0
0,2291,2010,1,1,0
0,2292,3430,-1,1,0
0,2293,2620,-1,1,0
0,2294,6660,-1,1,0
0,2295,770,1,1,0
0,2296,2940,-1,1,0
0,2297,590,1,1,0
0,2298,5430,-1,1,0
0,2299,1040,1,1,0
0,2300,1050,-1,1,0
0,2301,6540,-1,1,0
0,2302,2260,1,1,0
0,2303,4180,-1,1,0
0,2304,3820,-1,1,0
0,2305,830,-1,1,0
0,2306,1030,-1,1,0
0,2307,3100,-1,1,0
0,2308,5060,-1,1,0
0,2309,2820,1,1,0
0,2310,970,-1,1,0
0,2311,3300,1,1,0
0,2312,11810,1,1,0
0,2313,2650,-1,1,0
0,2314,750,-1,1,0
0,2315,1290,1,1,0
0,2316,6760,-1,1,0
0,2317,2770,1,1,0
0,2318,1040,-1,1,0
0,2319,2630,1,1,0
0,2320,3310,1,1,0
0,2321,1710,-1,1,0
0,2322,520,-1,1,0
0,2323,2250,-1,1,0
0,2324,880,-1,1,0
0,2325,2360,-1,1,0
0,2326,540,1,1,0
0,2327,1480,1,1,0
0,2328,900,-1,1,0
0,2329,630,1,1,0
0,2330,2470,1,1,0
0,2331,2000,-1,1,0
0,2332,390,-1,1,0
0,2333,1130,-1,1,0
0,2334,3250,-1,1,0
0,2335,4890,-1,1,0
0,2336,1860,-1,1,0
0,2337,2160,1,1,0
0,2338,2880,-1,1,0
0,2339,1110,-1,1,0
0,2340,1890,-1,1,0
0,2341,780,-1,1,0
0,2342,1100,-1,1,0
0,2343,640,-1,1,0
0,2344,3420,1,1,0
0,2345,620,-1,1,0
0,2346,11970,-1,1,0
0,2347,8260,1,1,0
0,2348,630,-1,1,0
0,2349,620,-1,1,0
0,2350,880,-1,1,0
0,2351,790,1,1,0
0,2352,1580,1,1,0
0,2353,4090,1,1,0
0,2354,370,1,1,0
0,2355,5810,-1,1,0
0,2356,1770,-1,1,0
0,2357,1780,1,1,0
0,2358,2170,1,1,0
0,2359,4830,-1,1,0
0,2360,1100,-1,1,0
0,2361,3210,-1,1,0
0,2362,1420,1,1,0
0,2363,660,-1,1,0
0,2364,1290,-1,1,0
0,2365,1990,1,1,0
0,2366,1380,-1,1,0
0,2367,3510,-1,1,0
0,2368,460,1,1,0
0,2369,3410,1,1,0
0,2370,2640,-1,1,0
0,2371,3710,-1,1,0
0,2372,1090,1,1,0
0,2373,3200,-1,1,0
0,2374,1200,1,1,0
0,2375,2990,-1,1,0
0,2376,2280,-1,1,0
0,2377,1980,-1,1,0
0,2378,2150,-1,1,0
0,2379,4080,-1,1,0
0,2380,2910,-1,1,0
0,2381,2060,-1,1,0
0,2382,1870,-1,1,0
0,2383,5440,1,1,0
0,2384,1120,-1,1,0
0,2385,450,-1,1,0
0,2386,1180,1,1,0
0,2387,1680,-1,1,0
0,2388,2910,-1,1,0
0,2389,1740,-1,1,0
0,2390,3160,-1,1,0
0,2391,2400,1,1,0
0,2392,1860,-1,1,0
0,2393,1010,-1,1,0
0,2394,940,-1,1,0
0,2395,920,1,1,0
0,2396,4460,1,1,0
0,2397,4940,-1,1,0
0,2398,4050,-1,1,0
0,2399,970,-1,1,0
0,2400,3120,-1,1,1
0,2401,1660,-1,1,1
0,2402,1160,1,1,1
0,2403,4710,-1,1,1
0,2404,1580,-1,1,1
0,2405,630,1,1,1
0,2406,2660,1,1,1
0,2407,3230,1,1,1
0,2408,1200,-1,1,1
0,2409,3520,1,1,1
0,2410,1350,-1,1,1
0,2411,4330,-1,1,1
0,2412,970,-1,1,1
0,2413,790,-1,1,1
0,2414,2370,1,1,1
0,2415,1710,-1,1,1
0,2416,2730,1,1,1
0,2417,4570,1,1,1
0,2418,7300,1,1,1
0,2419,5790,1,1,1
0,2420,2510,1,1,1
0,2421,2450,-1,1,1
0,2422,340,-1,1,1
0,2423,750,-1,1,1
0,2424,13830,1,1,1
0,2425,3850,-1,1,1
0,2426,4040,1,1,1
0,2427,1460,1,1,1
0,2428,1050,1,1,1
0,2429,700,-1,1,1
0,2430,420,-1,1,1
0,2431,5240,1,1,1
0,2432,910,1,1,1
0,2433,8300,1,1,1
0,2434,2420,1,1,1
0,2435,2550,1,1,1
0,2436,7150,1,1,1
0,2437,3540,1,1,1
0,2438,4320,1,1,1
0,2439,2180,1,1,1
0,2440,5430,-1,1,1
0,2441,2320,-1,1,1
0,2442,6630,-1,1,1
0,2443,1000,-1,1,1
0,2444,1820,-1,1,1
0,2445,3130,1,1,1
0,2446,2880,-1,1,1
0,2447,5990,1,1,1
0,2448,610,-1,1,1
0,2449,1920,1,1,1
0,2450,2070,-1,1,1
0,2451,1460,-1,1,1
0,2452,4950,-1,1,1
0,2453,580,-1,1,1
0,2454,1720,1,1,1
0,2455,4230,1,1,1
0,2456,1740,1,1,1
0,2457,700,-1,1,1
0,2458,5840,1,1,1
0,2459,690,1,1,1
0,2460,2180,1,1,1
0,2461,6010,1,1,1
0,2462,990,-1,1,1
0,2463,970,-1,1,1
0,2464,450,-1,1,1
0,2465,1660,-1,1,1
0,2466,850,1,1,1
0,2467,1100,1,1,1
0,2468,1130,-1,1,1
0,2469,2360,-1,1,1
0,2470,760,-1,1,1
0,2471,1510,1,1,1
0,2472,2220,-1,1,1
0,2473,1320,1,1,1
0,2474,8830,1,1,1
0,2475,580,1,1,1
0,2476,1900,1,1,1
0,2477,470,1,1,1
0,2478,620,-1,1,1
0,2479,2420,1,1,1
0,2480,2360,1,1,1
0,2481,6660,-1,1,1
0,2482,7590,-1,1,1
0,2483,2410,1,1,1
0,2484,3960,1,1,1
0,2485,2140,1,1,1
0,2486,3410,-1,1,1
0,2487,8100,1,1,1
0,2488,5250,1,1,1
0,2489,1080,1,1,1
0,2490,4210,1,1,1
0,2491,2320,-1,1,1
0,2492,980,1,1,1
0,2493,1110,-1,1,1
0,2494,4320,1,1,1
0,2495,1710,-1,1,1
0,2496,1160,1,1,1
0,2497,1050,1,1,1
0,2498,5880,-1,1,1
0,2499,530,1,1,1
0,2500,1450,-1,1,1
0,2501,1450,1,1,1
0,2502,3820,-1,1,1
0,2503,1290,1,1,1
0,2504,6350,-1,1,1
0,2505,3080,1,1,1
0,2506,2160,1,1,1
0,2507,530,1,1,1
0,2508,950,1,1,1
0,2509,1630,-1,1,1
0,2510,3230,-1,1,1
0,2511,1870,-1,1,1
0,2512,1010,1,1,1
0,2513,3580,-1,1,1
0,2514,2290,-1,1,1
0,2515,1930,1,1,1
0,2516,620,1,1,1
0,2517,1170,-1,1,1
0,2518,720,1,1,1
0,2519,3490,-1,1,1
0,2520,6770,-1,1,1
0,2521,4360,1,1,1
0,2522,1000,-1,1,1
0,2523,1650,1,1,1
0,2524,2230,1,1,1
0,2525,1280,-1,1,1
0,2526,3660,1,1,1
0,2527,1990,-1,1,1
0,2528,1490,1,1,1
0,2529,1600,1,1,1
0,2530,2480,1,1,1
0,2531,670,1,1,1
0,2532,4870,1,1,1
0,2533,1320,-1,1,1
0,2534,440,-1,1,1
0,2535,2750,1,1,1
0,2536,990,-1,1,1
0,2537,2780,1,1,1
0,2538,3720,1,1,1
0,2539,1250,1,1,1
0,2540,550,1,1,1
0,2541,2350,-1,1,1
0,2542,2250,1,1,1
0,2543,1120,1,1,1
0,2544,10720,-1,1,1
0,2545,5280,-1,1,1
0,2546,5660,1,1,1
0,2547,1880,1,1,1
0,2548,1480,-1,1,1
0,2549,3280,-1,1,1
0,2550,3160,1,1,1
0,2551,5870,1,1,1
0,2552,2260,1,1,1
0,2553,3680,-1,1,1
0,2554,4630,1,1,1
0,2555,1190,1,1,1
0,2556,1260,-1,1,1
0,2557,2100,-1,1,1
0,2558,1040,1,1,1
0,2559,960,-1,1,1
0,2560,1410,-1,1,1
0,2561,3680,1,1,1
0,2562,1840,-1,1,1
0,2563,3160,-1,1,1
0,2564,2940,-1,1,1
0,2565,2190,-1,1,1
0,2566,1980,-1,1,1
0,2567,3310,-1,1,1
0,2568,2240,-1,1,1
0,2569,3920,-1,1,1
0,2570,1540,1,1,1
0,2571,1490,-1,1,1
0,2572,3440,-1,1,1
0,2573,940,-1,1,1
0,2574,1960,1,1,1
0,2575,350,1,1,1
0,2576,3310,-1,1,1
0,2577,3700,-1,1,1
0,2578,4760,1,1,1
0,2579,10370,-1,1,1
0,2580,2440,-1,1,1
0,2581,2420,-1,1,1
0,2582,4590,1,1,1
0,2583,1750,1,1,1
0,2584,2260,1,1,1
0,2585,550,-1,1,1
0,2586,3680,1,1,1
0,2587,1080,-1,1,1
0,2588,7340,1,1,1
0,2589,2090,1,1,1
0,2590,2920,-1,1,1
0,2591,3850,1,1,1
0,2592,11190,1,1,1
0,2593,3970,-1,1,1
0,2594,9920,-1,1,1
0,2595,1130,-1,1,1
0,2596,440,1,1,1
0,2597,510,-1,1,1
0,2598,900,1,1,1
0,2599,1610,-1,1,1
0,2600,820,-1,1,1
0,2601,1470,1,1,1
0,2602,6870,-1,1,1
0,2603,1610,-1,1,1
0,2604,2840,-1,1,1
0,2605,5510,-1,1,1
0,2606,6490,1,1,1
0,2607,1920,1,1,1
0,2608,2070,1,1,1
0,2609,12370,1,1,1
0,2610,930,-1,1,1
0,2611,2410,1,1,1
0,2612,620,-1,1,1
0,2613,390,-1,1,1
0,2614,830,1,1,1
0,2615,2920,-1,1,1
0,2616,7530,-1,1,1
0,2617,1390,-1,1,1
0,2618,460,-1,1,1
0,2619,1140,-1,1,1
0,2620,2400,-1,1,1
0,2621,1590,1,1,1
0,2622,4210,1,1,1
0,2623,19020,-1,1,1
0,2624,860,1,1,1
0,2625,840,1,1,1
0,2626,1290,1,1,1
0,2627,3590,-1,1,1
0,2628,1130,1,1,1
0,2629,3640,1,1,1
0,2630,1120,-1,1,1
0,2631,5360,1,1,1
0,2632,1620,-1,1,1
0,2633,1120,1,1,1
0,2634,1870,-1,1,1
0,2635,5430,1,1,1
0,2636,3030,1,1,1
0,2637,1020,1,1,1
0,2638,1580,-1,1,1
0,2639,2540,-1,1,1
0,2640,690,-1,1,1
0,2641,1550,-1,1,1
0,2642,2280,1,1,1
0,2643,4140,-1,1,1
0,2644,890,-1,1,1
0,2645,4170,1,1,1
0,2646,1080,-1,1,1
0,2647,1560,1,1,1
0,2648,450,1,1,1
0,2649,3860,1,1,1
0,2650,7590,1,1,1
0,2651,4620,1,1,1
0,2652,2790,-1,1,1
0,2653,4070,-1,1,1
0,2654,2510,1,1,1
0,2655,3280,-1,1,1
0,2656,2320,-1,1,1
0,2657,9160,1,1,1
0,2658,1550,1,1,1
0,2659,2350,-1,1,1
0,2660,3450,-1,1,1
0,2661,1470,-1,1,1
0,2662,600,1,1,1
0,2663,2630,-1,1,1
0,2664,2790,1,1,1
0,2665,1220,-1,1,1
0,2666,3360,-1,1,1
0,2667,2550,-1,1,1
0,2668,5070,1,1,1
0,2669,1040,-1,1,1
0,2670,3980,1,1,1
0,2671,1420,1,1,1
0,2672,5270,-1,1,1
0,2673,4030,1,1,1
0,2674,1270,1,1,1
0,2675,2650,-1,1,1
0,2676,1520,1,1,1
0,2677,2180,-1,1,1
0,2678,830,1,1,1
0,2679,3860,1,1,1
0,2680,1410,1,1,1
0,2681,6120,-1,1,1
0,2682,10500,1,1,1
0,2683,5410,1,1,1
0,2684,1690,1,1,1
0,2685,6780,1,1,1
0,2686,4970,-1,1,1
0,2687,2480,-1,1,1
0,2688,4840,-1,1,1
0,2689,390,1,1,1
0,2690,1670,-1,1,1
0,2691,1160,1,1,1
0,2692,1270,1,1,1
0,2693,2740,-1,1,1
0,2694,4730,-1,1,1
0,2695,4170,-1,1,1
0,2696,3810,-1,1,1
0,2697,3580,1,1,1
0,2698,1400,1,1,1
0,2699,1780,-1,1,1
0,2700,810,1,1,2
0,2701,1460,-1,1,2
0,2702,2670,1,1,2
0,2703,2230,1,1,2
0,2704,2210,-1,1,2
0,2705,930,1,1,2
0,2706,1350,1,1,2
0,2707,3640,1,1,2
0,2708,3270,1,1,2
0,2709,4770,1,1,2
0,2710,1130,1,1,2
0,2711,1690,1,1,2
0,2712,1240,1,1,2
0,2713,1180,1,1,2
0,2714,4860,1,1,2
0,2715,1710,1,1,2
0,2716,1530,1,1,2
0,2717,1070,1,1,2
0,2718,5900,1,1,2
0,2719,2110,1,1,2
0,2720,1940,-1,1,2
0,2721,3590,1,1,2
0,2722,540,1,1,2
0,2723,890,-1,1,2
0,2724,2110,-1,1,2
0,2725,3190,1,1,2
0,2726,4210,-1,1,2
0,2727,1150,-1,1,2
0,2728,4800,1,1,2
0,2729,4380,1,1,2
0,2730,1420,-1,1,2
0,2731,1390,1,1,2
0,2732,1500,1,1,2
0,2733,910,1,1,2
0,2734,870,1,1,2
0,2735,1870,-1,1,2
0,2736,3600,1,1,2
0,2737,800,-1,1,2
0,2738,4700,-1,1,2
0,2739,3120,1,1,2
0,2740,860,-1,1,2
0,2741,5090,1,1,2
0,2742,2670,1,1,2
0,2743,440,1,1,2
0,2744,520,1,1,2
0,2745,2200,1,1,2
0,2746,1000,-1,1,2
0,2747,820,1,1,2
0,2748,1780,1,1,2
0,2749,7050,1,1,2
0,2750,2750,-1,1,2
0,2751,1010,1,1,2
0,2752,2440,1,1,2
0,2753,1330,1,1,2
0,2754,2720,1,1,2
0,2755,3200,1,1,2
0,2756,930,1,1,2
0,2757,3440,-1,1,2
0,2758,2350,-1,1,2
0,2759,1850,1,1,2
0,2760,1540,1,1,2
0,2761,1730,1,1,2
0,2762,1490,1,1,2
0,2763,5120,1,1,2
0,2764,3450,1,1,2
0,2765,5740,1,1,2
0,2766,1390,1,1,2
0,2767,4270,1,1,2
0,2768,7730,1,1,2
0,2769,11920,1,1,2
0,2770,1580,1,1,2
0,2771,1670,-1,1,2
0,2772,2100,-1,1,2
0,2773,6460,1,1,2
0,2774,2270,1,1,2
0,2775,3600,1,1,2
0,2776,2190,1,1,2
0,2777,2350,1,1,2
0,2778,930,1,1,2
0,2779,1570,1,1,2
0,2780,2710,1,1,2
0,2781,4440,-1,1,2
0,2782,1710,1,1,2
0,2783,3300,1,1,2
0,2784,1380,-1,1,2
0,2785,1660,1,1,2
0,2786,3170,1,1,2
0,2787,2960,1,1,2
0,2788,1600,-1,1,2
0,2789,1870,1,1,2
0,2790,630,1,1,2
0,2791,7230,1,1,2
0,2792,1850,1,1,2
0,2793,3210,-1,1,2
0,2794,3490,1,1,2
0,2795,1160,1,1,2
0,2796,1260,1,1,2
0,2797,2570,1,1,2
0,2798,1160,-1,1,2
0,2799,4460,1,1,2
0,2800,2470,1,1,2
0,2801,10160,1,1,2
0,2802,1710,1,1,2
0,2803,3310,1,1,2
0,2804,1650,-1,1,2
0,2805,820,1,1,2
0,2806,2490,1,1,2
0,2807,2150,-1,1,2
0,2808,5570,1,1,2
0,2809,4810,1,1,2
0,2810,4330,1,1,2
0,2811,2020,-1,1,2
0,2812,1160,1,1,2
0,2813,3430,-1,1,2
0,2814,1290,1,1,2
0,2815,2050,1,1,2
0,2816,2100,-1,1,2
0,2817,1850,1,1,2
0,2818,940,1,1,2
0,2819,1010,1,1,2
0,2820,920,1,1,2
0,2821,6650,1,1,2
0,2822,660,1,1,2
0,2823,7690,1,1,2
0,2824,2080,1,1,2
0,2825,750,-1,1,2
0,2826,980,1,1,2
0,2827,1150,-1,1,2
0,2828,770,1,1,2
0,2829,5840,-1,1,2
0,2830,1440,1,1,2
0,2831,1300,1,1,2
0,2832,1060,1,1,2
0,2833,1440,1,1,2
0,2834,4840,-1,1,2
0,2835,450,1,1,2
0,2836,1950,1,1,2
0,2837,1220,1,1,2
0,2838,1290,-1,1,2
0,2839,780,1,1,2
0,2840,3230,-1,1,2
0,2841,4710,1,1,2
0,2842,4570,1,1,2
0,2843,460,-1,1,2
0,2844,1170,1,1,2
0,2845,3060,1,1,2
0,2846,820,-1,1,2
0,2847,2700,1,1,2
0,2848,2510,1,1,2
0,2849,1780,1,1,2
0,2850,710,1,1,2
0,2851,3830,1,1,2
0,2852,4870,-1,1,2
0,2853,3100,1,1,2
0,2854,1140,1,1,2
0,2855,8720,1,1,2
0,2856,420,1,1,2
0,2857,400,1,1,2
0,2858,750,1,1,2
0,2859,10080,1,1,2
0,2860,1200,1,1,2
0,2861,1100,-1,1,2
0,2862,1870,1,1,2
0,2863,1550,-1,1,2
0,2864,3650,-1,1,2
0,2865,7100,-1,1,2
0,2866,2720,1,1,2
0,2867,4900,-1,1,2
0,2868,750,-1,1,2
0,2869,1160,1,1,2
0,2870,8430,-1,1,2
0,2871,4440,1,1,2
0,2872,1200,1,1,2
0,2873,1560,1,1,2
0,2874,850,-1,1,2
0,2875,1060,-1,1,2
0,2876,3210,1,1,2
0,2877,1370,1,1,2
0,2878,3960,-1,1,2
0,2879,6750,1,1,2
0,2880,1070,1,1,2
0,2881,2210,1,1,2
0,2882,4210,-1,1,2
0,2883,3680,1,1,2
0,2884,5480,-1,1,2
0,2885,14070,1,1,2
0,2886,800,-1,1,2
0,2887,5850,-1,1,2
0,2888,1640,-1,1,2
0,2889,850,1,1,2
0,2890,1290,1,1,2
0,2891,3170,-1,1,2
0,2892,7070,1,1,2
0,2893,6240,1,1,2
0,2894,2340,1,1,2
0,2895,330,1,1,2
0,2896,1450,1,1,2
0,2897,1690,-1,1,2
0,2898,1750,1,1,2
0,2899,1730,1,1,2
0,2900,10450,1,1,2
0,2901,7360,-1,1,2
0,2902,1390,1,1,2
0,2903,4450,1,1,2
0,2904,2920,1,1,2
0,2905,2400,1,1,2
0,2906,4070,1,1,2
0,2907,2220,-1,1,2
0,2908,8600,1,1,2
0,2909,6590,1,1,2
0,2910,820,1,1,2
0,2911,4180,1,1,2
0,2912,2250,1,1,2
0,2913,3240,-1,1,2
0,2914,3340,-1,1,2
0,2915,2100,1,1,2
0,2916,3030,-1,1,2
0,2917,4580,1,1,2
0,2918,5150,-1,1,2
0,2919,2370,1,1,2
0,2920,1830,1,1,2
0,2921,910,-1,1,2
0,2922,1330,1,1,2
0,2923,830,1,1,2
0,2924,2140,-1,1,2
0,2925,480,1,1,2
0,2926,3780,-1,1,2
0,2927,870,1,1,2
0,2928,7060,-1,1,2
0,2929,1780,-1,1,2
0,2930,5360,1,1,2
0,2931,1910,1,1,2
0,2932,2640,1,1,2
0,2933,2280,-1,1,2
0,2934,2550,1,1,2
0,2935,300,1,1,2
0,2936,4220,1,1,2
0,2937,2590,1,1,2
0,2938,1970,-1,1,2
0,2939,6220,-1,1,2
0,2940,1350,1,1,2
0,2941,3290,1,1,2
0,2942,2160,1,1,2
0,2943,2680,1,1,2
0,2944,810,1,1,2
0,2945,1440,1,1,2
0,2946,4520,1,1,2
0,2947,1700,1,1,2
0,2948,4850,1,1,2
0,2949,990,-1,1,2
0,2950,490,1,1,2
0,2951,370,1,1,2
0,2952,4720,1,1,2
0,2953,780,-1,1,2
0,2954,1370,1,1,2
0,2955,4580,-1,1,2
0,2956,990,1,1,2
0,2957,670,1,1,2
0,2958,1970,1,1,2
0,2959,3180,-1,1,2
0,2960,1580,-1,1,2
0,2961,2040,1,1,2
0,2962,610,1,1,2
0,2963,3650,1,1,2
0,2964,2940,1,1,2
0,2965,1990,1,1,2
0,2966,780,-1,1,2
0,2967,3590,-1,1,2
0,2968,1860,-1,1,2
0,2969,1600,1,1,2
0,2970,2950,-1,1,2
0,2971,3380,-1,1,2
0,2972,1610,1,1,2
0,2973,3590,1,1,2
0,2974,770,1,1,2
0,2975,1210,-1,1,2
0,2976,4120,1,1,2
0,2977,2160,-1,1,2
0,2978,1040,1,1,2
0,2979,1340,1,1,2
0,2980,3000,1,1,2
0,2981,3710,-1,1,2
0,2982,1520,1,1,2
0,2983,1200,-1,1,2
0,2984,1080,1,1,2
0,2985,3930,1,1,2
0,2986,3070,1,1,2
0,2987,400,1,1,2
0,2988,1880,-1,1,2
0,2989,640,1,1,2
0,2990,3280,1,1,2
0,2991,1010,-1,1,2
0,2992,3940,1,1,2
0,2993,1830,1,1,2
0,2994,4810,-1,1,2
0,2995,1880,1,1,2
0,2996,1720,-1,1,2
0,2997,930,-1,1,2
0,2998,1160,1,1,2
0,2999,1150,-1,1,2
0,3000,2810,1,1,2
0,3001,3290,-1,1,2
0,3002,1360,-1,1,2
0,3003,2620,-1,1,2
0,3004,1700,1,1,2
0,3005,3360,1,1,2
0,3006,520,1,1,2
0,3007,570,1,1,2
0,3008,11930,1,1,2
0,3009,2730,1,1,2
0,3010,1440,1,1,2
0,3011,2100,1,1,2
0,3012,1420,1,1,2
0,3013,1560,-1,1,2
0,3014,1580,1,1,2
0,3015,2610,1,1,2
0,3016,2970,1,1,2
0,3017,9790,-1,1,2
0,3018,1000,1,1,2
0,3019,2480,-1,1,2
0,3020,1640,1,1,2
0,3021,4240,-1,1,2
0,3022,2180,1,1,2
0,3023,990,1,1,2
0,3024,1240,1,1,2
0,3025,6910,1,1,2
0,3026,22550,1,1,2
0,3027,1730,1,1,2
0,3028,1990,1,1,2
0,3029,1800,1,1,2
0,3030,2020,1,1,2
0,3031,4630,-1,1,2
0,3032,4230,1,1,2
0,3033,2780,-1,1,2
0,3034,720,1,1,2
0,3035,510,1,1,2
0,3036,1340,1,1,2
0,3037,4290,-1,1,2
0,3038,620,1,1,2
0,3039,1000,-1,1,2
0,3040,590,1,1,2
0,3041,1030,-1,1,2
0,3042,1780,-1,1,2
0,3043,810,1,1,2
0,3044,3210,1,1,2
0,3045,2240,1,1,2
0,3046,5210,-1,1,2
0,3047,2260,1,1,2
0,3048,11580,1,1,2
0,3049,1900,1,1,2
0,3050,3030,1,1,2
0,3051,520,1,1,2
0,3052,650,1,1,2
0,3053,1590,1,1,2
0,3054,440,-1,1,2
0,3055,3880,-1,1,2
0,3056,1260,1,1,2
0,3057,2140,1,1,2
0,3058,2040,1,1,2
0,3059,11920,1,1,2
0,3060,1090,1,1,2
0,3061,3250,1,1,2
0,3062,3530,-1,1,2
0,3063,1210,1,1,2
0,3064,5260,-1,1,2
0,3065,2470,1,1,2
0,3066,4080,-1,1,2
0,3067,1550,-1,1,2
0,3068,3010,1,1,2
0,3069,1720,1,1,2
0,3070,1570,-1,1,2
0,3071,2920,-1,1,2
0,3072,6330,-1,1,2
0,3073,1780,-1,1,2
0,3074,590,-1,1,2
0,3075,3620,-1,1,2
0,3076,700,-1,1,2
0,3077,1090,1,1,2
0,3078,1660,1,1,2
0,3079,1070,1,1,2
0,3080,790,1,1,2
0,3081,1790,1,1,2
0,3082,3730,1,1,2
0,3083,1140,1,1,2
0,3084,620,-1,1,2
0,3085,3670,-1,1,2
0,3086,3930,1,1,2
0,3087,1710,-1,1,2
0,3088,3020,-1,1,2
0,3089,5250,1,1,2
0,3090,4350,1,1,2
0,3091,2770,1,1,2
0,3092,820,1,1,2
0,3093,2460,1,1,2
0,3094,2340,1,1,2
0,3095,920,1,1,2
0,3096,4390,-1,1,2
0,3097,1760,1,1,2
0,3098,2360,1,1,2
0,3099,1350,-1,1,2
0,3100,6920,1,1,2
0,3101,2580,1,1,2
0,3102,830,1,1,2
0,3103,1010,1,1,2
0,3104,1130,1,1,2
0,3105,7360,-1,1,2
0,3106,1480,1,1,2
0,3107,760,-1,1,2
0,3108,4010,-1,1,2
0,3109,1640,-1,1,2
0,3110,5410,1,1,2
0,3111,1030,-1,1,2
0,3112,1680,1,1,2
0,3113,1220,1,1,2
0,3114,2120,1,1,2
0,3115,980,1,1,2
0,3116,4710,1,1,2
0,3117,820,-1,1,2
0,3118,1400,1,1,2
0,3119,2650,1,1,2
0,3120,3710,1,1,2
0,3121,1790,1,1,2
0,3122,590,1,1,2
0,3123,750,1,1,2
0,3124,1400,1,1,2
0,3125,4510,1,1,2
0,3126,8870,1,1,2
0,3127,2160,1,1,2
0,3128,3190,1,1,2
0,3129,580,-1,1,2
0,3130,2020,1,1,2
0,3131,1190,1,1,2
0,3132,4260,-1,1,2
0,3133,1000,-1,1,2
0,3134,980,-1,1,2
0,3135,970,-1,1,2
0,3136,1340,-1,1,2
0,3137,9220,1,1,2
0,3138,3150,1,1,2
0,3139,5780,1,1,2
0,3140,1130,-1,1,2
0,3141,1060,1,1,2
0,3142,2830,1,1,2
0,3143,2300,1,1,2
0,3144,1980,1,1,2
0,3145,1090,-1,1,2
0,3146,910,-1,1,2
0,3147,3570,-1,1,2
0,3148,1570,-1,1,2
0,3149,1100,-1,1,2
0,3150,4130,1,1,2
0,3151,5390,1,1,2
0,3152,2210,1,1,2
0,3153,2760,1,1,2
0,3154,4020,1,1,2
0,3155,1140,-1,1,2
0,3156,720,-1,1,2
0,3157,3400,1,1,2
0,3158,1460,1,1,2
0,3159,2520,-1,1,2
0,3160,10800,1,1,2
0,3161,2840,-1,1,2
0,3162,1490,-1,1,2
0,3163,3510,-1,1,2
0,3164,2750,1,1,2
0,3165,2360,1,1,2
0,3166,1820,-1,1,2
0,3167,910,-1,1,2
0,3168,1380,1,1,2
0,3169,2590,1,1,2
0,3170,1020,-1,1,2
0,3171,1970,1,1,2
0,3172,2710,-1,1,2
0,3173,990,-1,1,2
0,3174,580,1,1,2
0,3175,2200,1,1,2
0,3176,6110,-1,1,2
0,3177,7100,-1,1,2
0,3178,4210,1,1,2
0,3179,1970,1,1,2
0,3180,5050,1,1,2
0,3181,770,1,1,2
0,3182,7380,1,1,2
0,3183,5850,1,1,2
0,3184,3920,1,1,2
0,3185,1190,1,1,2
0,3186,2170,1,1,2
0,3187,2340,1,1,2
0,3188,4220,1,1,2
0,3189,9490,1,1,2
0,3190,1290,1,1,2
0,3191,1640,1,1,2
0,3192,1910,1,1,2
0,3193,1470,1,1,2
0,3194,1520,1,1,2
0,3195,2440,1,1,2
0,3196,2020,-1,1,2
0,3197,310,1,1,2
0,3198,1070,1,1,2
0,3199,4460,1,1,2
0,3200,1610,1,1,2
0,3201,720,1,1,2
0,3202,10900,1,1,2
0,3203,1050,1,1,2
0,3204,880,1,1,2
0,3205,910,1,1,2
0,3206,1130,1,1,2
0,3207,4500,1,1,2
0,3208,860,1,1,2
0,3209,2100,1,1,2
0,3210,2890,1,1,2
0,3211,2300,1,1,2
0,3212,3750,1,1,2
0,3213,4240,1,1,2
0,3214,3590,1,1,2
0,3215,2470,1,1,2
0,3216,2310,-1,1,2
0,3217,1640,1,1,2
0,3218,840,1,1,2
0,3219,1940,-1,1,2
0,3220,4120,1,1,2
0,3221,590,1,1,2
0,3222,310,1,1,2
0,3223,2040,1,1,2
0,3224,1580,1,1,2
0,3225,1460,1,1,2
0,3226,1250,-1,1,2
0,3227,2730,1,1,2
0,3228,1470,1,1,2
0,3229,1710,1,1,2
0,3230,2420,1,1,2
0,3231,2170,1,1,2
0,3232,4400,1,1,2
0,3233,6310,-1,1,2
0,3234,2780,1,1,2
0,3235,1940,1,1,2
0,3236,1470,1,1,2
0,3237,1580,-1,1,2
0,3238,830,-1,1,2
0,3239,1050,1,1,2
0,3240,2440,1,1,2
0,3241,810,1,1,2
0,3242,4760,1,1,2
0,3243,1300,1,1,2
0,3244,610,-1,1,2
0,3245,3300,-1,1,2
0,3246,1420,-1,1,2
0,3247,3600,1,1,2
0,3248,1360,1,1,2
0,3249,5980,-1,1,2
0,3250,4050,1,1,2
0,3251,790,-1,1,2
0,3252,1180,1,1,2
0,3253,680,1,1,2
0,3254,2940,1,1,2
0,3255,2250,1,1,2
0,3256,720,1,1,2
0,3257,690,-1,1,2
0,3258,6790,-1,1,2
0,3259,6670,-1,1,2
0,3260,950,-1,1,2
0,3261,2140,1,1,2
0,3262,310,-1,1,2
0,3263,1660,1,1,2
0,3264,2360,1,1,2
0,3265,2210,1,1,2
0,3266,1420,1,1,2
0,3267,940,1,1,2
0,3268,2970,1,1,2
0,3269,310,-1,1,2
0,3270,1760,-1,1,2
0,3271,8400,1,1,2
0,3272,4250,1,1,2
0,3273,4770,-1,1,2
0,3274,1750,-1,1,2
0,3275,3130,1,1,2
0,3276,1690,1,1,2
0,3277,2050,1,1,2
0,3278,630,1,1,2
0,3279,2260,1,1,2
0,3280,1290,-1,1,2
0,3281,790,1,1,2
0,3282,1030,1,1,2
0,3283,3110,1,1,2
0,3284,1390,1,1,2
0,3285,3460,1,1,2
0,3286,1290,1,1,2
0,3287,3190,1,1,2
0,3288,1370,-1,1,2
0,3289,1350,1,1,2
0,3290,3120,1,1,2
0,3291,7730,-1,1,2
0,3292,2550,-1,1,2
0,3293,570,1,1,2
0,3294,3720,1,1,2
0,3295,4350,1,1,2
0,3296,1020,1,1,2
0,3297,1210,1,1,2
0,3298,2020,1,1,2
0,3299,1470,1,1,2
0,3300,2770,1,1,3
0,3301,6630,1,1,3
0,3302,1190,1,1,3
0,3303,950,1,1,3
0,3304,1170,-1,1,3
0,3305,7020,1,1,3
0,3306,2980,1,1,3
0,3307,1910,1,1,3
0,3308,420,1,1,3
0,3309,3020,1,1,3
0,3310,1790,1,1,3
0,3311,5340,1,1,3
0,3312,4170,1,1,3
0,3313,1340,-1,1,3
0,3314,1470,-1,1,3
0,3315,1600,1,1,3
0,3316,2270,1,1,3
0,3317,800,1,1,3
0,3318,940,1,1,3
0,3319,460,1,1,3
0,3320,2610,1,1,3
0,3321,1060,1,1,3
0,3322,1830,1,1,3
0,3323,4030,1,1,3
0,3324,1000,1,1,3
0,3325,1470,1,1,3
0,3326,1620,1,1,3
0,3327,1190,1,1,3
0,3328,1200,1,1,3
0,3329,570,1,1,3
0,3330,2010,1,1,3
0,3331,2780,1,1,3
0,3332,5130,1,1,3
0,3333,650,1,1,3
0,3334,1800,1,1,3
0,3335,940,1,1,3
0,3336,860,1,1,3
0,3337,910,1,1,3
0,3338,620,1,1,3
0,3339,1400,1,1,3
0,3340,5910,-1,1,3
0,3341,1260,1,1,3
0,3342,510,1,1,3
0,3343,1800,1,1,3
0,3344,1210,1,1,3
0,3345,930,1,1,3
0,3346,1020,1,1,3
0,3347,5060,1,1,3
0,3348,2870,1,1,3
0,3349,5250,1,1,3
0,3350,4530,1,1,3
0,3351,7770,1,1,3
0,3352,540,1,1,3
0,3353,2030,1,1,3
0,3354,2240,1,1,3
0,3355,3510,1,1,3
0,3356,5010,1,1,3
0,3357,7390,1,1,3
0,3358,2610,1,1,3
0,3359,690,1,1,3
0,3360,920,1,1,3
0,3361,3150,-1,1,3
0,3362,6270,1,1,3
0,3363,1800,1,1,3
0,3364,900,1,1,3
0,3365,2290,1,1,3
0,3366,1530,1,1,3
0,3367,270,1,1,3
0,3368,1580,1,1,3
0,3369,800,1,1,3
0,3370,1620,1,1,3
0,3371,1120,1,1,3
0,3372,1010,1,1,3
0,3373,4860,1,1,3
0,3374,8210,1,1,3
0,3375,2730,1,1,3
0,3376,380,-1,1,3
0,3377,2670,1,1,3
0,3378,1100,1,1,3
0,3379,3200,1,1,3
0,3380,460,1,1,3
0,3381,1130,-1,1,3
0,3382,2310,1,1,3
0,3383,830,1,1,3
0,3384,1240,1,1,3
0,3385,4210,1,1,3
0,3386,880,-1,1,3
0,3387,4270,1,1,3
0,3388,750,1,1,3
0,3389,1440,1,1,3
0,3390,3080,1,1,3
0,3391,5850,1,1,3
0,3392,1530,1,1,3
0,3393,920,1,1,3
0,3394,1620,1,1,3
0,3395,720,1,1,3
0,3396,620,1,1,3
0,3397,1280,1,1,3
0,3398,2030,-1,1,3
0,3399,1030,1,1,3
0,3400,1320,1,1,3
0,3401,1170,1,1,3
0,3402,1470,1,1,3
0,3403,750,-1,1,3
0,3404,1720,1,1,3
0,3405,2000,1,1,3
0,3406,1510,-1,1,3
0,3407,5360,1,1,3
0,3408,2770,1,1,3
0,3409,1040,1,1,3
0,3410,4110,1,1,3
0,3411,770,-1,1,3
0,3412,2660,1,1,3
0,3413,710,-1,1,3
0,3414,5470,1,1,3
0,3415,1050,1,1,3
0,3416,1000,1,1,3
0,3417,8370,1,1,3
0,3418,1490,1,1,3
0,3419,360,1,1,3
0,3420,1080,1,1,3
0,3421,1410,1,1,3
0,3422,2730,1,1,3
0,3423,1670,1,1,3
0,3424,1790,1,1,3
0,3425,1220,1,1,3
0,3426,1030,1,1,3
0,3427,1250,-1,1,3
0,3428,2300,1,1,3
0,3429,1740,1,1,3
0,3430,2730,1,1,3
0,3431,1500,1,1,3
0,3432,2720,1,1,3
0,3433,3130,1,1,3
0,3434,2540,1,1,3
0,3435,1930,1,1,3
0,3436,800,1,1,3
0,3437,1340,1,1,3
0,3438,1040,-1,1,3
0,3439,3390,1,1,3
0,3440,8100,1,1,3
0,3441,1220,1,1,3
0,3442,1350,1,1,3
0,3443,900,-1,1,3
0,3444,4620,-1,1,3
0,3445,4310,1,1,3
0,3446,1940,1,1,3
0,3447,2420,1,1,3
0,3448,1260,1,1,3
0,3449,400,-1,1,3
0,3450,1800,1,1,3
0,3451,2360,1,1,3
0,3452,3730,1,1,3
0,3453,1190,1,1,3
0,3454,3670,1,1,3
0,3455,5150,1,1,3
0,3456,1270,1,1,3
0,3457,1200,1,1,3
0,3458,470,1,1,3
0,3459,790,1,1,3
0,3460,1220,1,1,3
0,3461,490,1,1,3
0,3462,2420,1,1,3
0,3463,900,1,1,3
0,3464,2900,1,1,3
0,3465,6440,1,1,3
0,3466,1760,1,1,3
0,3467,4420,1,1,3
0,3468,2510,1,1,3
0,3469,730,-1,1,3
0,3470,1220,1,1,3
0,3471,2720,1,1,3
0,3472,2480,1,1,3
0,3473,790,1,1,3
0,3474,570,-1,1,3
0,3475,1480,1,1,3
0,3476,1860,1,1,3
0,3477,1140,1,1,3
0,3478,2710,1,1,3
0,3479,2050,1,1,3
0,3480,5170,1,1,3
0,3481,1890,1,1,3
0,3482,1520,-1,1,3
0,3483,2900,1,1,3
0,3484,1430,1,1,3
0,3485,6140,1,1,3
0,3486,4220,1,1,3
0,3487,1210,1,1,3
0,3488,9170,1,1,3
0,3489,3420,1,1,3
0,3490,1210,1,1,3
0,3491,740,1,1,3
0,3492,890,1,1,3
0,3493,1710,1,1,3
0,3494,1530,1,1,3
0,3495,2140,1,1,3
0,3496,1570,1,1,3
0,3497,730,1,1,3
0,3498,3350,1,1,3
0,3499,3270,-1,1,3
0,3500,4310,1,1,3
0,3501,1890,1,1,3
0,3502,4700,1,1,3
0,3503,970,1,1,3
0,3504,2030,1,1,3
0,3505,850,1,1,3
0,3506,1500,1,1,3
0,3507,5340,1,1,3
0,3508,330,1,1,3
0,3509,3560,1,1,3
0,3510,1870,1,1,3
0,3511,1400,1,1,3
0,3512,2480,1,1,3
0,3513,1130,1,1,3
0,3514,4280,1,1,3
0,3515,690,1,1,3
0,3516,1800,1,1,3
0,3517,940,1,1,3
0,3518,3440,1,1,3
0,3519,680,1,1,3
0,3520,1260,1,1,3
0,3521,1200,1,1,3
0,3522,3360,-1,1,3
0,3523,1310,1,1,3
0,3524,3360,1,1,3
0,3525,830,1,1,3
0,3526,4340,1,1,3
0,3527,3040,1,1,3
0,3528,2680,1,1,3
0,3529,1110,1,1,3
0,3530,870,-1,1,3
0,3531,6470,1,1,3
0,3532,4680,1,1,3
0,3533,1370,1,1,3
0,3534,2750,-1,1,3
0,3535,740,1,1,3
0,3536,1330,1,1,3
0,3537,4460,-1,1,3
0,3538,1370,1,1,3
0,3539,1790,1,1,3
0,3540,5770,1,1,3
0,3541,1220,1,1,3
0,3542,2180,1,1,3
0,3543,2170,1,1,3
0,3544,1130,1,1,3
0,3545,3770,1,1,3
0,3546,5060,-1,1,3
0,3547,2380,1,1,3
0,3548,850,1,1,3
0,3549,1330,1,1,3
0,3550,680,1,1,3
0,3551,1110,1,1,3
0,3552,1420,1,1,3
0,3553,770,1,1,3
0,3554,830,1,1,3
0,3555,5860,1,1,3
0,3556,2050,1,1,3
0,3557,910,1,1,3
0,3558,3610,-1,1,3
0,3559,1460,1,1,3
0,3560,2500,1,1,3
0,3561,610,-1,1,3
0,3562,1600,1,1,3
0,3563,3680,1,1,3
0,3564,2150,1,1,3
0,3565,1670,1,1,3
0,3566,810,1,1,3
0,3567,6240,1,1,3
0,3568,1520,1,1,3
0,3569,2470,1,1,3
0,3570,2870,1,1,3
0,3571,950,1,1,3
0,3572,1430,1,1,3
0,3573,1020,1,1,3
0,3574,7840,1,1,3
0,3575,4190,1,1,3
0,3576,2040,-1,1,3
0,3577,970,1,1,3
0,3578,2600,1,1,3
0,3579,590,1,1,3
0,3580,1410,1,1,3
0,3581,3700,1,1,3
0,3582,2670,1,1,3
0,3583,710,1,1,3
0,3584,510,1,1,3
0,3585,2190,1,1,3
0,3586,2610,1,1,3
0,3587,680,1,1,3
0,3588,1980,1,1,3
0,3589,2320,1,1,3
0,3590,700,1,1,3
0,3591,1050,1,1,3
0,3592,1270,1,1,3
0,3593,1790,1,1,3
0,3594,3240,-1,1,3
0,3595,2730,1,1,3
0,3596,2680,1,1,3
0,3597,2560,1,1,3
0,3598,760,1,1,3
0,3599,2160,1,1,3
0,3600,1050,-1,2,0
0,3601,4370,-1,2,0
0,3602,1710,-1,2,0
0,3603,3320,1,2,0
0,3604,460,-1,2,0
0,3605,670,-1,2,0
0,3606,4850,-1,2,0
0,3607,710,-1,2,0
0,3608,1890,-1,2,0
0,3609,1410,-1,2,0
0,3610,1100,-1,2,0
0,3611,2550,-1,2,0
0,3612,2380,-1,2,0
0,3613,1700,-1,2,0
0,3614,990,-1,2,0
0,3615,740,1,2,0
0,3616,7380,-1,2,0
0,3617,610,1,2,0
0,3618,1000,-1,2,0
0,3619,2150,-1,2,0
0,3620,1480,-1,2,0
0,3621,720,-1,2,0
0,3622,640,-1,2,0
0,3623,3930,-1,2,0
0,3624,2800,-1,2,0
0,3625,2170,-1,2,0
0,3626,2010,-1,2,0
0,3627,1550,-1,2,0
0,3628,980,-1,2,0
0,3629,2660,1,2,0
0,3630,1590,-1,2,0
0,3631,2010,-1,2,0
0,3632,2220,-1,2,0
0,3633,1610,-1,2,0
0,3634,2520,-1,2,0
0,3635,1300,-1,2,0
0,3636,4250,-1,2,0
0,3637,4490,-1,2,0
0,3638,4400,-1,2,0
0,3639,1360,-1,2,0
0,3640,930,-1,2,0
0,3641,3400,-1,2,0
0,3642,1080,-1,2,0
0,3643,3330,-1,2,0
0,3644,830,-1,2,0
0,3645,810,1,2,0
0,3646,2980,-1,2,0
0,3647,710,-1,2,0
0,3648,3700,-1,2,0
0,3649,4380,-1,2,0
0,3650,4550,-1,2,0
0,3651,1110,-1,2,0
0,3652,1560,-1,2,0
0,3653,1780,-1,2,0
0,3654,1270,-1,2,0
0,3655,7840,-1,2,0
0,3656,1360,-1,2,0
0,3657,500,-1,2,0
0,3658,1690,-1,2,0
0,3659,4730,-1,2,0
0,3660,3420,-1,2,0
0,3661,1580,-1,2,0
0,3662,5170,-1,2,0
0,3663,3130,-1,2,0
0,3664,5030,-1,2,0
0,3665,660,-1,2,0
0,3666,660,-1,2,0
0,3667,720,1,2,0
0,3668,6030,1,2,0
0,3669,1200,-1,2,0
0,3670,5580,1,2,0
0,3671,3950,-1,2,0
0,3672,4000,-1,2,0
0,3673,2160,-1,2,0
0,3674,3200,-1,2,0
0,3675,1670,-1,2,0
0,3676,4340,-1,2,0
0,3677,1110,-1,2,0
0,3678,680,-1,2,0
0,3679,4840,-1,2,0
0,3680,5210,-1,2,0
0,3681,1920,-1,2,0
0,3682,3310,-1,2,0
0,3683,2140,-1,2,0
0,3684,3280,-1,2,0
0,3685,2230,-1,2,0
0,3686,1410,-1,2,0
0,3687,2070,-1,2,0
0,3688,2000,-1,2,0
0,3689,2340,-1,2,0
0,3690,4910,-1,2,0
0,3691,2570,-1,2,0
0,3692,1450,-1,2,0
0,3693,2720,-1,2,0
0,3694,670,-1,2,0
0,3695,840,1,2,0
0,3696,810,-1,2,0
0,3697,1590,1,2,0
0,3698,1010,-1,2,0
0,3699,850,-1,2,0
0,3700,480,-1,2,0
0,3701,2490,-1,2,0
0,3702,1600,-1,2,0
0,3703,1820,1,2,0
0,3704,1820,-1,2,0
0,3705,2760,-1,2,0
0,3706,2490,-1,2,0
0,3707,1480,-1,2,0
0,3708,2200,-1,2,0
0,3709,1200,-1,2,0
0,3710,11310,-1,2,0
0,3711,1820,-1,2,0
0,3712,2820,-1,2,0
0,3713,8390,-1,2,0
0,3714,1070,-1,2,0
0,3715,2450,-1,2,0
0,3716,810,-1,2,0
0,3717,1340,-1,2,0
0,3718,4400,-1,2,0
0,3719,3500,-1,2,0
0,3720,2500,-1,2,0
0,3721,2360,-1,2,0
0,3722,2100,-1,2,0
0,3723,760,-1,2,0
0,3724,1130,-1,2,0
0,3725,1230,-1,2,0
0,3726,1020,-1,2,0
0,3727,2490,-1,2,0
0,3728,1170,1,2,0
0,3729,1660,1,2,0
0,3730,3950,-1,2,0
0,3731,430,-1,2,0
0,3732,2410,-1,2,0
0,3733,1870,1,2,0
0,3734,2070,-1,2,0
0,3735,2470,1,2,0
0,3736,1150,1,2,0
0,3737,3310,-1,2,0
0,3738,1690,-1,2,0
0,3739,890,-1,2,0
0,3740,4140,1,2,0
0,3741,1660,-1,2,0
0,3742,5460,-1,2,0
0,3743,850,-1,2,0
0,3744,680,-1,2,0
0,3745,1820,-1,2,0
0,3746,650,-1,2,0
0,3747,580,-1,2,0
0,3748,2600,1,2,0
0,3749,4060,-1,2,0
0,3750,2200,-1,2,0
0,3751,1740,-1,2,0
0,3752,770,1,2,0
0,3753,6530,-1,2,0
0,3754,2100,-1,2,0
0,3755,1390,-1,2,0
0,3756,3100,-1,2,0
0,3757,2340,-1,2,0
0,3758,580,-1,2,0
0,3759,3670,-1,2,0
0,3760,640,-1,2,0
0,3761,1080,-1,2,0
0,3762,4000,-1,2,0
0,3763,1140,-1,2,0
0,3764,630,-1,2,0
0,3765,1380,-1,2,0
0,3766,2820,-1,2,0
0,3767,1420,-1,2,0
0,3768,4870,-1,2,0
0,3769,2490,-1,2,0
0,3770,1110,-1,2,0
0,3771,5270,-1,2,0
0,3772,1120,-1,2,0
0,3773,4840,1,2,0
0,3774,6670,-1,2,0
0,3775,1510,-1,2,0
0,3776,7580,-1,2,0
0,3777,900,-1,2,0
0,3778,1850,-1,2,0
0,3779,590,-1,2,0
0,3780,1330,-1,2,0
0,3781,3000,-1,2,0
0,3782,1670,-1,2,0
0,3783,1100,-1,2,0
0,3784,1630,-1,2,0
0,3785,720,-1,2,0
0,3786,4240,-1,2,0
0,3787,5550,-1,2,0
0,3788,1070,-1,2,0
0,3789,1800,1,2,0
0,3790,1700,-1,2,0
0,3791,1490,-1,2,0
0,3792,1490,-1,2,0
0,3793,990,-1,2,0
0,3794,650,-1,2,0
0,3795,680,-1,2,0
0,3796,4930,-1,2,0
0,3797,5830,-1,2,0
0,3798,960,-1,2,0
0,3799,4970,1,2,0
0,3800,2430,-1,2,0
0,3801,940,1,2,0
0,3802,2200,1,2,0
0,3803,1120,-1,2,0
0,3804,850,-1,2,0
0,3805,4860,-1,2,0
0,3806,1750,-1,2,0
0,3807,2050,-1,2,0
0,3808,910,-1,2,0
0,3809,1140,1,2,0
0,3810,2430,-1,2,0
0,3811,4450,1,2,0
0,3812,5460,-1,2,0
0,3813,3280,-1,2,0
0,3814,1560,-1,2,0
0,3815,1110,-1,2,0
0,3816,6050,-1,2,0
0,3817,1770,-1,2,0
0,3818,4730,1,2,0
0,3819,1530,-1,2,0
0,3820,1360,1,2,0
0,3821,900,-1,2,0
0,3822,520,-1,2,0
0,3823,2060,-1,2,0
0,3824,1150,1,2,0
0,3825,1780,1,2,0
0,3826,4660,-1,2,0
0,3827,1640,-1,2,0
0,3828,6050,-1,2,0
0,3829,1470,-1,2,0
0,3830,660,-1,2,0
0,3831,3130,-1,2,0
0,3832,1780,-1,2,0
0,3833,860,-1,2,0
0,3834,1830,-1,2,0
0,3835,3480,-1,2,0
0,3836,2780,-1,2,0
0,3837,1520,1,2,0
0,3838,1410,-1,2,0
0,3839,1350,-1,2,0
0,3840,4420,-1,2,0
0,3841,1260,1,2,0
0,3842,2310,-1,2,0
0,3843,6520,-1,2,0
0,3844,2200,-1,2,0
0,3845,940,-1,2,0
0,3846,1150,-1,2,0
0,3847,10440,-1,2,0
0,3848,880,-1,2,0
0,3849,1450,-1,2,0
0,3850,1460,1,2,0
0,3851,800,1,2,0
0,3852,770,-1,2,0
0,3853,6680,-1,2,0
0,3854,4370,-1,2,0
0,3855,1190,-1,2,0
0,3856,4770,-1,2,0
0,3857,920,-1,2,0
0,3858,7680,-1,2,0
0,3859,1480,-1,2,0
0,3860,2020,-1,2,0
0,3861,2600,-1,2,0
0,3862,1010,-1,2,0
0,3863,1030,-1,2,0
0,3864,990,1,2,0
0,3865,1440,-1,2,0
0,3866,3150,-1,2,0
0,3867,2500,-1,2,0
0,3868,2510,-1,2,0
0,3869,2060,-1,2,0
0,3870,2050,-1,2,0
0,3871,640,1,2,0
0,3872,8810,-1,2,0
0,3873,3050,-1,2,0
0,3874,5270,-1,2,0
0,3875,1150,-1,2,0
0,3876,3340,-1,2,0
0,3877,2400,-1,2,0
0,3878,640,-1,2,0
0,3879,490,1,2,0
0,3880,790,-1,2,0
0,3881,1040,-1,2,0
0,3882,3550,-1,2,0
0,3883,440,-1,2,0
0,3884,2220,-1,2,0
0,3885,680,1,2,0
0,3886,460,-1,2,0
0,3887,2710,1,2,0
0,3888,1430,-1,2,0
0,3889,1340,-1,2,0
0,3890,1490,-1,2,0
0,3891,3070,-1,2,0
0,3892,1730,-1,2,0
0,3893,4660,-1,2,0
0,3894,2000,-1,2,0
0,3895,470,-1,2,0
0,3896,5300,-1,2,0
0,3897,6630,-1,2,0
0,3898,1490,-1,2,0
0,3899,1620,-1,2,0
0,3900,2280,-1,2,0
0,3901,680,-1,2,0
0,3902,2280,-1,2,0
0,3903,710,-1,2,0
0,3904,1190,-1,2,0
0,3905,1470,-1,2,0
0,3906,2960,1,2,0
0,3907,4120,1,2,0
0,3908,390,-1,2,0
0,3909,2050,-1,2,0
0,3910,1870,-1,2,0
0,3911,2400,-1,2,0
0,3912,7550,-1,2,0
0,3913,550,-1,2,0
0,3914,2920,-1,2,0
0,3915,4310,-1,2,0
0,3916,2140,-1,2,0
0,3917,1120,-1,2,0
0,3918,3080,-1,2,0
0,3919,780,-1,2,0
0,3920,840,-1,2,0
0,3921,3600,-1,2,0
0,3922,6490,-1,2,0
0,3923,1500,-1,2,0
0,3924,990,1,2,0
0,3925,2230,-1,2,0
0,3926,5410,-1,2,0
0,3927,4360,-1,2,0
0,3928,670,-1,2,0
0,3929,1260,1,2,0
0,3930,1130,-1,2,0
0,3931,970,-1,2,0
0,3932,560,-1,2,0
0,3933,3850,-1,2,0
0,3934,1960,-1,2,0
0,3935,320,-1,2,0
0,3936,3580,-1,2,0
0,3937,2530,-1,2,0
0,3938,2110,-1,2,0
0,3939,1120,-1,2,0
0,3940,1750,-1,2,0
0,3941,880,-1,2,0
0,3942,6110,-1,2,0
0,3943,5080,-1,2,0
0,3944,770,-1,2,0
0,3945,2470,-1,2,0
0,3946,5490,-1,2,0
0,3947,640,-1,2,0
0,3948,2120,-1,2,0
0,3949,670,-1,2,0
0,3950,1070,-1,2,0
0,3951,630,-1,2,0
0,3952,1020,-1,2,0
0,3953,4240,1,2,0
0,3954,4360,-1,2,0
0,3955,4120,-1,2,0
0,3956,1850,-1,2,0
0,3957,2580,-1,2,0
0,3958,3070,-1,2,0
0,3959,1150,-1,2,0
0,3960,1170,-1,2,0
0,3961,630,-1,2,0
0,3962,5320,-1,2,0
0,3963,1860,1,2,0
0,3964,6140,-1,2,0
0,3965,2990,-1,2,0
0,3966,1200,-1,2,0
0,3967,930,-1,2,0
0,3968,2470,-1,2,0
0,3969,1410,-1,2,0
0,3970,1050,-1,2,0
0,3971,510,-1,2,0
0,3972,2150,-1,2,0
0,3973,3340,-1,2,0
0,3974,3520,-1,2,0
0,3975,1070,-1,2,0
0,3976,3210,1,2,0
0,3977,1510,-1,2,0
0,3978,780,-1,2,0
0,3979,670,-1,2,0
0,3980,5950,-1,2,0
0,3981,980,-1,2,0
0,3982,2200,-1,2,0
0,3983,1840,-1,2,0
0,3984,720,-1,2,0
0,3985,2360,-1,2,0
0,3986,1450,-1,2,0
0,3987,4550,-1,2,0
0,3988,2830,-1,2,0
0,3989,1330,-1,2,0
0,3990,1580,-1,2,0
0,3991,2580,-1,2,0
0,3992,3710,-1,2,0
0,3993,780,-1,2,0
0,3994,2720,-1,2,0
0,3995,540,-1,2,0
0,3996,1240,-1,2,0
0,3997,1880,-1,2,0
0,3998,4830,-1,2,0
0,3999,1920,-1,2,0
0,4000,960,1,2,0
0,4001,1660,-1,2,0
0,4002,2200,-1,2,0
0,4003,2550,1,2,0
0,4004,1630,-1,2,0
0,4005,1760,-1,2,0
0,4006,910,-1,2,0
0,4007,1120,-1,2,0
0,4008,3200,-1,2,0
0,4009,1110,-1,2,0
0,4010,790,1,2,0
0,4011,2360,-1,2,0
0,4012,5700,-1,2,0
0,4013,1150,-1,2,0
0,4014,1160,1,2,0
0,4015,2410,-1,2,0
0,4016,3130,-1,2,0
0,4017,1850,-1,2,0
0,4018,610,-1,2,0
0,4019,1220,1,2,0
0,4020,1280,-1,2,0
0,4021,1740,-1,2,0
0,4022,1250,-1,2,0
0,4023,2370,-1,2,0
0,4024,2230,-1,2,0
0,4025,1810,-1,2,0
0,4026,920,-1,2,0
0,4027,2530,-1,2,0
0,4028,1030,-1,2,0
0,4029,2610,-1,2,0
0,4030,2880,-1,2,0
0,4031,2140,-1,2,0
0,4032,700,-1,2,0
0,4033,8730,-1,2,0
0,4034,970,-1,2,0
0,4035,500,-1,2,0
0,4036,5460,-1,2,0
0,4037,1980,-1,2,0
0,4038,640,-1,2,0
0,4039,4370,-1,2,0
0,4040,5190,-1,2,0
0,4041,2080,-1,2,0
0,4042,1620,-1,2,0
0,4043,1690,-1,2,0
0,4044,1360,-1,2,0
0,4045,2940,-1,2,0
0,4046,3990,-1,2,0
0,4047,7730,-1,2,0
0,4048,620,-1,2,0
0,4049,1380,-1,2,0
0,4050,3150,-1,2,0
0,4051,3810,1,2,0
0,4052,1670,-1,2,0
0,4053,930,-1,2,0
0,4054,820,1,2,0
0,4055,2340,-1,2,0
0,4056,980,-1,2,0
0,4057,1670,-1,2,0
0,4058,2320,1,2,0
0,4059,1370,1,2,0
0,4060,2250,-1,2,0
0,4061,3720,-1,2,0
0,4062,2040,-1,2,0
0,4063,970,-1,2,0
0,4064,1810,-1,2,0
0,4065,2230,1,2,0
0,4066,1220,-1,2,0
0,4067,2440,-1,2,0
0,4068,1290,-1,2,0
0,4069,780,-1,2,0
0,4070,2260,-1,2,0
0,4071,3060,-1,2,0
0,4072,4170,-1,2,0
0,4073,2160,-1,2,0
0,4074,440,-1,2,0
0,4075,3530,1,2,0
0,4076,16970,-1,2,0
0,4077,980,1,2,0
0,4078,2650,-1,2,0
0,4079,3450,-1,2,0
0,4080,1540,-1,2,0
0,4081,1680,-1,2,0
0,4082,3510,-1,2,0
0,4083,570,1,2,0
0,4084,4570,-1,2,0
0,4085,1190,-1,2,0
0,4086,1610,-1,2,0
0,4087,910,-1,2,0
0,4088,500,-1,2,0
0,4089,660,-1,2,0
0,4090,3160,-1,2,0
0,4091,2460,-1,2,0
0,4092,800,-1,2,0
0,4093,5470,-1,2,0
0,4094,2780,-1,2,0
0,4095,1810,-1,2,0
0,4096,760,-1,2,0
0,4097,1600,-1,2,0
0,4098,500,-1,2,0
0,4099,4160,-1,2,0
0,4100,2630,1,2,0
0,4101,980,-1,2,0
0,4102,4680,-1,2,0
0,4103,3120,-1,2,0
0,4104,5990,-1,2,0
0,4105,1950,1,2,0
0,4106,1520,-1,2,0
0,4107,2450,-1,2,0
0,4108,4070,-1,2,0
0,4109,1460,-1,2,0
0,4110,3110,-1,2,0
0,4111,900,-1,2,0
0,4112,2840,-1,2,0
0,4113,1350,1,2,0
0,4114,2030,-1,2,0
0,4115,670,-1,2,0
0,4116,890,-1,2,0
0,4117,5490,-1,2,0
0,4118,1320,-1,2,0
0,4119,1360,-1,2,0
0,4120,1510,-1,2,0
0,4121,720,-1,2,0
0,4122,540,-1,2,0
0,4123,1230,-1,2,0
0,4124,1980,-1,2,0
0,4125,2070,-1,2,0
0,4126,1770,1,2,0
0,4127,4400,-1,2,0
0,4128,6070,-1,2,0
0,4129,1820,-1,2,0
0,4130,890,-1,2,0
0,4131,1310,-1,2,0
0,4132,11640,-1,2,0
0,4133,2680,-1,2,0
0,4134,3440,-1,2,0
0,4135,1930,-1,2,0
0,4136,660,-1,2,0
0,4137,970,1,2,0
0,4138,2090,-1,2,0
0,4139,1750,-1,2,0
0,4140,2620,-1,2,0
0,4141,1030,-1,2,0
0,4142,930,1,2,0
0,4143,750,-1,2,0
0,4144,390,-1,2,0
0,4145,2150,-1,2,0
0,4146,1760,-1,2,0
0,4147,1930,-1,2,0
0,4148,6290,-1,2,0
0,4149,2210,-1,2,0
0,4150,750,-1,2,0
0,4151,1970,-1,2,0
0,4152,4730,-1,2,0
0,4153,2310,1,2,0
0,4154,1090,-1,2,0
0,4155,760,-1,2,0
0,4156,730,-1,2,0
0,4157,1230,-1,2,0
0,4158,970,-1,2,0
0,4159,1070,-1,2,0
0,4160,2990,-1,2,0
0,4161,2620,-1,2,0
0,4162,1700,-1,2,0
0,4163,1970,1,2,0
0,4164,1810,-1,2,0
0,4165,1240,-1,2,0
0,4166,1480,1,2,0
0,4167,930,-1,2,0
0,4168,1310,-1,2,0
0,4169,1490,-1,2,0
0,4170,1010,-1,2,0
0,4171,680,-1,2,0
0,4172,3810,-1,2,0
0,4173,590,1,2,0
0,4174,1410,-1,2,0
0,4175,6290,-1,2,0
0,4176,1860,-1,2,0
0,4177,2300,-1,2,0
0,4178,4320,-1,2,0
0,4179,2220,-1,2,0
0,4180,1130,-1,2,0
0,4181,5140,1,2,0
0,4182,320,-1,2,0
0,4183,2610,1,2,0
0,4184,760,1,2,0
0,4185,680,-1,2,0
0,4186,480,1,2,0
0,4187,3130,-1,2,0
0,4188,1420,-1,2,0
0,4189,1750,-1,2,0
0,4190,1110,-1,2,0
0,4191,550,-1,2,0
0,4192,2270,-1,2,0
0,4193,820,-1,2,0
0,4194,900,-1,2,0
0,4195,1650,-1,2,0
0,4196,2470,-1,2,0
0,4197,1690,-1,2,0
0,4198,1180,1,2,0
0,4199,1890,-1,2,0
0,4200,2580,-1,2,1
0,4201,1560,1,2,1
0,4202,3390,1,2,1
0,4203,4200,-1,2,1
0,4204,1240,-1,2,1
0,4205,2380,-1,2,1
0,4206,4930,1,2,1
0,4207,2990,1,2,1
0,4208,1120,-1,2,1
0,4209,2630,1,2,1
0,4210,1270,-1,2,1
0,4211,320,-1,2,1
0,4212,4800,1,2,1
0,4213,3080,-1,2,1
0,4214,3570,1,2,1
0,4215,3180,-1,2,1
0,4216,5260,-1,2,1
0,4217,7570,-1,2,1
0,4218,770,-1,2,1
0,4219,7140,1,2,1
0,4220,4890,-1,2,1
0,4221,3620,-1,2,1
0,4222,9110,-1,2,1
0,4223,1630,-1,2,1
0,4224,300,1,2,1
0,4225,3470,-1,2,1
0,4226,1250,-1,2,1
0,4227,1010,1,2,1
0,4228,1120,-1,2,1
0,4229,780,-1,2,1
0,4230,1180,1,2,1
0,4231,1940,-1,2,1
0,4232,1800,-1,2,1
0,4233,4910,1,2,1
0,4234,3210,-1,2,1
0,4235,1500,-1,2,1
0,4236,8060,-1,2,1
0,4237,1520,-1,2,1
0,4238,490,-1,2,1
0,4239,3730,1,2,1
0,4240,2910,-1,2,1
0,4241,3990,-1,2,1
0,4242,3660,-1,2,1
0,4243,1540,-1,2,1
0,4244,1850,-1,2,1
0,4245,2130,-1,2,1
0,4246,2280,1,2,1
0,4247,2240,-1,2,1
0,4248,1320,-1,2,1
0,4249,1860,-1,2,1
0,4250,1110,-1,2,1
0,4251,1520,1,2,1
0,4252,2410,1,2,1
0,4253,1810,1,2,1
0,4254,1920,-1,2,1
0,4255,2940,-1,2,1
0,4256,900,-1,2,1
0,4257,1220,-1,2,1
0,4258,4970,1,2,1
0,4259,3730,-1,2,1
0,4260,2570,1,2,1
0,4261,3240,1,2,1
0,4262,1210,-1,2,1
0,4263,2250,-1,2,1
0,4264,2370,-1,2,1
0,4265,810,1,2,1
0,4266,3170,-1,2,1
0,4267,1410,-1,2,1
0,4268,4120,-1,2,1
0,4269,1350,-1,2,1
0,4270,1330,-1,2,1
0,4271,2150,-1,2,1
0,4272,910,-1,2,1
0,4273,5130,-1,2,1
0,4274,1840,-1,2,1
0,4275,1600,-1,2,1
0,4276,1240,-1,2,1
0,4277,3540,-1,2,1
0,4278,1090,-1,2,1
0,4279,2090,-1,2,1
0,4280,1930,1,2,1
0,4281,2840,-1,2,1
0,4282,2140,-1,2,1
0,4283,1210,-1,2,1
0,4284,4070,1,2,1
0,4285,1690,-1,2,1
0,4286,930,1,2,1
0,4287,1160,-1,2,1
0,4288,2580,-1,2,1
0,4289,390,-1,2,1
0,4290,2410,-1,2,1
0,4291,1050,-1,2,1
0,4292,1030,-1,2,1
0,4293,1850,1,2,1
0,4294,4270,-1,2,1
0,4295,5340,-1,2,1
0,4296,2660,-1,2,1
0,4297,1250,1,2,1
0,4298,4560,-1,2,1
0,4299,500,-1,2,1
0,4300,1240,-1,2,1
0,4301,4020,1,2,1
0,4302,1380,1,2,1
0,4303,810,-1,2,1
0,4304,1440,-1,2,1
0,4305,1900,-1,2,1
0,4306,5730,-1,2,1
0,4307,1240,-1,2,1
0,4308,2610,-1,2,1
0,4309,670,-1,2,1
0,4310,2030,1,2,1
0,4311,4130,-1,2,1
0,4312,1120,1,2,1
0,4313,1550,-1,2,1
0,4314,1370,-1,2,1
0,4315,9410,-1,2,1
0,4316,9320,-1,2,1
0,4317,1860,-1,2,1
0,4318,1630,-1,2,1
0,4319,860,-1,2,1
0,4320,1110,1,2,1
0,4321,2150,-1,2,1
0,4322,950,-1,2,1
0,4323,1100,-1,2,1
0,4324,1190,-1,2,1
0,4325,3000,-1,2,1
0,4326,470,-1,2,1
0,4327,990,-1,2,1
0,4328,1940,1,2,1
0,4329,1930,-1,2,1
0,4330,2130,-1,2,1
0,4331,580,-1,2,1
0,4332,5430,-1,2,1
0,4333,1190,-1,2,1
0,4334,890,-1,2,1
0,4335,2140,-1,2,1
0,4336,3590,-1,2,1
0,4337,7270,-1,2,1
0,4338,820,1,2,1
0,4339,2390,-1,2,1
0,4340,2760,-1,2,1
0,4341,1760,-1,2,1
0,4342,1760,1,2,1
0,4343,1530,-1,2,1
0,4344,2490,-1,2,1
0,4345,1530,1,2,1
0,4346,2800,-1,2,1
0,4347,4100,-1,2,1
0,4348,3130,-1,2,1
0,4349,2010,-1,2,1
0,4350,610,-1,2,1
0,4351,700,1,2,1
0,4352,1080,-1,2,1
0,4353,1010,1,2,1
0,4354,2170,-1,2,1
0,4355,820,-1,2,1
0,4356,7100,1,2,1
0,4357,5030,-1,2,1
0,4358,3890,-1,2,1
0,4359,1380,-1,2,1
0,4360,1900,-1,2,1
0,4361,1090,-1,2,1
0,4362,650,-1,2,1
0,4363,6810,-1,2,1
0,4364,1270,1,2,1
0,4365,5520,-1,2,1
0,4366,880,1,2,1
0,4367,1810,-1,2,1
0,4368,3610,-1,2,1
0,4369,1590,-1,2,1
0,4370,1900,-1,2,1
0,4371,4090,-1,2,1
0,4372,1490,-1,2,1
0,4373,660,-1,2,1
0,4374,1010,1,2,1
0,4375,940,-1,2,1
0,4376,1560,-1,2,1
0,4377,2990,-1,2,1
0,4378,1150,-1,2,1
0,4379,1450,-1,2,1
0,4380,1690,-1,2,1
0,4381,3030,1,2,1
0,4382,1100,-1,2,1
0,4383,5800,-1,2,1
0,4384,560,-1,2,1
0,4385,1210,1,2,1
0,4386,4330,-1,2,1
0,4387,1630,-1,2,1
0,4388,2530,-1,2,1
0,4389,3660,-1,2,1
0,4390,2800,-1,2,1
0,4391,3770,-1,2,1
0,4392,2750,-1,2,1
0,4393,540,-1,2,1
0,4394,1880,1,2,1
0,4395,1660,1,2,1
0,4396,1120,1,2,1
0,4397,7680,1,2,1
0,4398,1760,-1,2,1
0,4399,4490,-1,2,1
0,4400,4690,-1,2,1
0,4401,980,-1,2,1
0,4402,500,-1,2,1
0,4403,2010,-1,2,1
0,4404,600,1,2,1
0,4405,3760,-1,2,1
0,4406,1770,-1,2,1
0,4407,2830,1,2,1
0,4408,7390,-1,2,1
0,4409,1000,-1,2,1
0,4410,2370,-1,2,1
0,4411,2030,-1,2,1
0,4412,2050,-1,2,1
0,4413,1510,-1,2,1
0,4414,1350,1,2,1
0,4415,4990,1,2,1
0,4416,980,-1,2,1
0,4417,1090,1,2,1
0,4418,1680,-1,2,1
0,4419,5190,-1,2,1
0,4420,4700,1,2,1
0,4421,2760,1,2,1
0,4422,4190,1,2,1
0,4423,580,-1,2,1
0,4424,1050,-1,2,1
0,4425,900,-1,2,1
0,4426,940,1,2,1
0,4427,2460,-1,2,1
0,4428,910,1,2,1
0,4429,1110,-1,2,1
0,4430,2160,1,2,1
0,4431,610,-1,2,1
0,4432,850,-1,2,1
0,4433,1200,-1,2,1
0,4434,290,1,2,1
0,4435,1310,-1,2,1
0,4436,1510,-1,2,1
0,4437,1320,1,2,1
0,4438,620,-1,2,1
0,4439,2610,-1,2,1
0,4440,5450,-1,2,1
0,4441,4290,-1,2,1
0,4442,2760,-1,2,1
0,4443,2500,-1,2,1
0,4444,4270,1,2,1
0,4445,3400,-1,2,1
0,4446,1600,1,2,1
0,4447,7840,1,2,1
0,4448,8960,1,2,1
0,4449,2620,-1,2,1
0,4450,1050,-1,2,1
0,4451,1200,-1,2,1
0,4452,8180,-1,2,1
0,4453,2880,1,2,1
0,4454,1060,-1,2,1
0,4455,900,1,2,1
0,4456,800,-1,2,1
0,4457,1440,-1,2,1
0,4458,2070,-1,2,1
0,4459,4470,1,2,1
0,4460,2920,-1,2,1
0,4461,2730,1,2,1
0,4462,1350,-1,2,1
0,4463,2390,-1,2,1
0,4464,5410,1,2,1
0,4465,430,1,2,1
0,4466,6210,1,2,1
0,4467,4270,-1,2,1
0,4468,4020,1,2,1
0,4469,1320,-1,2,1
0,4470,1990,-1,2,1
0,4471,1850,-1,2,1
0,4472,920,-1,2,1
0,4473,1320,-1,2,1
0,4474,3210,-1,2,1
0,4475,6330,-1,2,1
0,4476,1000,-1,2,1
0,4477,5570,1,2,1
0,4478,1250,1,2,1
0,4479,9960,1,2,1
0,4480,810,-1,2,1
0,4481,7200,-1,2,1
0,4482,2630,-1,2,1
0,4483,2980,-1,2,1
0,4484,6480,-1,2,1
0,4485,1210,1,2,1
0,4486,1530,-1,2,1
0,4487,340,1,2,1
0,4488,5890,-1,2,1
0,4489,1650,-1,2,1
0,4490,1170,-1,2,1
0,4491,1030,1,2,1
0,4492,6800,1,2,1
0,4493,5340,-1,2,1
0,4494,5340,-1,2,1
0,4495,1140,-1,2,1
0,4496,5920,-1,2,1
0,4497,3860,1,2,1
0,4498,530,-1,2,1
0,4499,950,1,2,1
0,4500,5540,-1,2,1
0,4501,1760,1,2,1
0,4502,3670,-1,2,1
0,4503,670,-1,2,1
0,4504,1550,1,2,1
0,4505,890,-1,2,1
0,4506,3820,1,2,1
0,4507,420,-1,2,1
0,4508,3690,-1,2,1
0,4509,3730,-1,2,1
0,4510,5460,-1,2,1
0,4511,1780,1,2,1
0,4512,3870,1,2,1
0,4513,2700,-1,2,1
0,4514,3170,1,2,1
0,4515,980,-1,2,1
0,4516,1730,-1,2,1
0,4517,3170,-1,2,1
0,4518,6250,-1,2,1
0,4519,730,1,2,1
0,4520,2150,1,2,1
0,4521,1600,-1,2,1
0,4522,1310,-1,2,1
0,4523,4630,-1,2,1
0,4524,4240,1,2,1
0,4525,8400,-1,2,1
0,4526,2630,-1,2,1
0,4527,1450,1,2,1
0,4528,880,-1,2,1
0,4529,2000,1,2,1
0,4530,9260,-1,2,1
0,4531,1560,-1,2,1
0,4532,5670,-1,2,1
0,4533,2570,-1,2,1
0,4534,390,-1,2,1
0,4535,970,-1,2,1
0,4536,1130,-1,2,1
0,4537,3300,-1,2,1
0,4538,400,-1,2,1
0,4539,4200,1,2,1
0,4540,920,-1,2,1
0,4541,1170,-1,2,1
0,4542,1790,1,2,1
0,4543,550,-1,2,1
0,4544,1240,-1,2,1
0,4545,1600,1,2,1
0,4546,420,1,2,1
0,4547,480,1,2,1
0,4548,2330,-1,2,1
0,4549,2930,-1,2,1
0,4550,5140,-1,2,1
0,4551,3960,1,2,1
0,4552,3230,1,2,1
0,4553,3290,-1,2,1
0,4554,780,-1,2,1
0,4555,2340,-1,2,1
0,4556,1150,-1,2,1
0,4557,4120,-1,2,1
0,4558,2110,1,2,1
0,4559,2860,1,2,1
0,4560,790,-1,2,1
0,4561,4530,-1,2,1
0,4562,7010,-1,2,1
0,4563,2350,-1,2,1
0,4564,970,-1,2,1
0,4565,4660,-1,2,1
0,4566,1620,-1,2,1
0,4567,5120,-1,2,1
0,4568,4340,-1,2,1
0,4569,3350,-1,2,1
0,4570,3780,-1,2,1
0,4571,950,1,2,1
0,4572,1280,-1,2,1
0,4573,840,-1,2,1
0,4574,5300,-1,2,1
0,4575,1360,-1,2,1
0,4576,2390,-1,2,1
0,4577,5960,-1,2,1
0,4578,520,-1,2,1
0,4579,1650,-1,2,1
0,4580,2610,-1,2,1
0,4581,3570,-1,2,1
0,4582,840,-1,2,1
0,4583,8310,-1,2,1
0,4584,1700,-1,2,1
0,4585,870,-1,2,1
0,4586,970,1,2,1
0,4587,1160,1,2,1
0,4588,1620,-1,2,1
0,4589,2750,1,2,1
0,4590,2300,-1,2,1
0,4591,2100,-1,2,1
0,4592,810,-1,2,1
0,4593,1950,-1,2,1
0,4594,3890,1,2,1
0,4595,1790,-1,2,1
0,4596,2070,-1,2,1
0,4597,2600,1,2,1
0,4598,1090,1,2,1
0,4599,570,1,2,1
0,4600,3010,1,2,1
0,4601,2270,-1,2,1
0,4602,4330,-1,2,1
0,4603,3190,-1,2,1
0,4604,7890,1,2,1
0,4605,1410,-1,2,1
0,4606,570,-1,2,1
0,4607,2390,-1,2,1
0,4608,2750,1,2,1
0,4609,1080,-1,2,1
0,4610,2430,1,2,1
0,4611,770,1,2,1
0,4612,1200,-1,2,1
0,4613,5600,-1,2,1
0,4614,540,-1,2,1
0,4615,1820,-1,2,1
0,4616,2560,-1,2,1
0,4617,1500,-1,2,1
0,4618,2010,-1,2,1
0,4619,3810,-1,2,1
0,4620,740,-1,2,1
0,4621,2660,-1,2,1
0,4622,5510,-1,2,1
0,4623,3770,-1,2,1
0,4624,960,-1,2,1
0,4625,990,1,2,1
0,4626,1350,-1,2,1
0,4627,4470,-1,2,1
0,4628,1630,-1,2,1
0,4629,4120,1,2,1
0,4630,1600,-1,2,1
0,4631,5450,1,2,1
0,4632,4040,-1,2,1
0,4633,2180,-1,2,1
0,4634,730,1,2,1
0,4635,2470,-1,2,1
0,4636,2620,-1,2,1
0,4637,560,-1,2,1
0,4638,790,-1,2,1
0,4639,3860,-1,2,1
0,4640,2090,-1,2,1
0,4641,1100,1,2,1
0,4642,10710,-1,2,1
0,4643,1190,-1,2,1
0,4644,1410,-1,2,1
0,4645,3200,-1,2,1
0,4646,5200,-1,2,1
0,4647,560,-1,2,1
0,4648,3360,-1,2,1
0,4649,5990,1,2,1
0,4650,1630,-1,2,1
0,4651,4330,1,2,1
0,4652,2110,-1,2,1
0,4653,1620,1,2,1
0,4654,4540,-1,2,1
0,4655,1900,-1,2,1
0,4656,2620,-1,2,1
0,4657,1360,-1,2,1
0,4658,1930,-1,2,1
0,4659,2160,-1,2,1
0,4660,1040,-1,2,1
0,4661,1490,-1,2,1
0,4662,6870,1,2,1
0,4663,14710,-1,2,1
0,4664,4290,-1,2,1
0,4665,1550,-1,2,1
0,4666,3590,-1,2,1
0,4667,2540,-1,2,1
0,4668,2810,1,2,1
0,4669,2670,-1,2,1
0,4670,6370,1,2,1
0,4671,1580,-1,2,1
0,4672,1080,-1,2,1
0,4673,440,-1,2,1
0,4674,3800,-1,2,1
0,4675,2320,-1,2,1
0,4676,3770,-1,2,1
0,4677,6470,-1,2,1
0,4678,3330,-1,2,1
0,4679,1190,1,2,1
0,4680,2260,-1,2,1
0,4681,5110,-1,2,1
0,4682,5580,1,2,1
0,4683,1040,1,2,1
0,4684,3400,1,2,1
0,4685,7490,1,2,1
0,4686,1450,1,2,1
0,4687,1640,-1,2,1
0,4688,2560,1,2,1
0,4689,5270,-1,2,1
0,4690,2880,-1,2,1
0,4691,1550,-1,2,1
0,4692,2470,-1,2,1
0,4693,1130,-1,2,1
0,4694,2220,-1,2,1
0,4695,1740,-1,2,1
0,4696,2950,-1,2,1
0,4697,1880,-1,2,1
0,4698,7630,1,2,1
0,4699,1350,1,2,1
0,4700,730,-1,2,1
0,4701,1810,1,2,1
0,4702,3910,-1,2,1
0,4703,5380,1,2,1
0,4704,2420,1,2,1
0,4705,2480,-1,2,1
0,4706,2680,-1,2,1
0,4707,3180,-1,2,1
0,4708,1060,-1,2,1
0,4709,2390,-1,2,1
0,4710,920,-1,2,1
0,4711,1960,-1,2,1
0,4712,680,-1,2,1
0,4713,2170,-1,2,1
0,4714,2860,-1,2,1
0,4715,5210,1,2,1
0,4716,1630,-1,2,1
0,4717,2170,1,2,1
0,4718,2210,-1,2,1
0,4719,1140,1,2,1
0,4720,1590,-1,2,1
0,4721,2440,-1,2,1
0,4722,1040,1,2,1
0,4723,3350,-1,2,1
0,4724,1630,-1,2,1
0,4725,10810,-1,2,1
0,4726,4080,-1,2,1
0,4727,1410,-1,2,1
0,4728,6230,-1,2,1
0,4729,1030,-1,2,1
0,4730,2530,1,2,1
0,4731,1220,1,2,1
0,4732,3440,-1,2,1
0,4733,2080,1,2,1
0,4734,510,1,2,1
0,4735,1960,1,2,1
0,4736,5060,-1,2,1
0,4737,580,1,2,1
0,4738,4250,-1,2,1
0,4739,770,-1,2,1
0,4740,6010,-1,2,1
0,4741,3240,-1,2,1
0,4742,7610,-1,2,1
0,4743,4700,-1,2,1
0,4744,1630,-1,2,1
0,4745,390,1,2,1
0,4746,340,1,2,1
0,4747,1820,-1,2,1
0,4748,1820,-1,2,1
0,4749,4420,-1,2,1
0,4750,9820,1,2,1
0,4751,2160,-1,2,1
0,4752,1430,1,2,1
0,4753,4900,-1,2,1
0,4754,1780,-1,2,1
0,4755,2090,-1,2,1
0,4756,1690,-1,2,1
0,4757,680,-1,2,1
0,4758,980,1,2,1
0,4759,2870,-1,2,1
0,4760,2280,1,2,1
0,4761,5920,-1,2,1
0,4762,760,-1,2,1
0,4763,3480,-1,2,1
0,4764,2740,1,2,1
0,4765,470,-1,2,1
0,4766,560,-1,2,1
0,4767,1740,1,2,1
0,4768,3650,-1,2,1
0,4769,3140,-1,2,1
0,4770,1030,-1,2,1
0,4771,4330,-1,2,1
0,4772,2290,-1,2,1
0,4773,1780,1,2,1
0,4774,2370,1,2,1
0,4775,3440,-1,2,1
0,4776,2160,-1,2,1
0,4777,3160,-1,2,1
0,4778,2020,1,2,1
0,4779,2140,-1,2,1
0,4780,660,1,2,1
0,4781,3670,-1,2,1
0,4782,3750,1,2,1
0,4783,320,-1,2,1
0,4784,3260,-1,2,1
0,4785,2910,1,2,1
0,4786,3420,-1,2,1
0,4787,1060,-1,2,1
0,4788,2560,1,2,1
0,4789,1400,1,2,1
0,4790,2140,-1,2,1
0,4791,3850,-1,2,1
0,4792,4330,1,2,1
0,4793,5410,1,2,1
0,4794,1540,-1,2,1
0,4795,2570,1,2,1
0,4796,7680,-1,2,1
0,4797,9400,1,2,1
0,4798,9630,-1,2,1
0,4799,2750,-1,2,1
0,4800,5240,1,2,2
0,4801,1940,1,2,2
0,4802,4240,1,2,2
0,4803,4320,1,2,2
0,4804,14370,-1,2,2
0,4805,1960,-1,2,2
0,4806,4200,-1,2,2
0,4807,4970,1,2,2
0,4808,1510,1,2,2
0,4809,6930,-1,2,2
0,4810,600,1,2,2
0,4811,1820,-1,2,2
0,4812,3040,-1,2,2
0,4813,730,-1,2,2
0,4814,1780,-1,2,2
0,4815,5170,-1,2,2
0,4816,970,1,2,2
0,4817,720,-1,2,2
0,4818,2170,1,2,2
0,4819,3340,-1,2,2
0,4820,850,-1,2,2
0,4821,3880,1,2,2
0,4822,4870,-1,2,2
0,4823,630,-1,2,2
0,4824,1920,-1,2,2
0,4825,1470,-1,2,2
0,4826,2360,-1,2,2
0,4827,930,-1,2,2
0,4828,1560,-1,2,2
0,4829,2030,1,2,2
0,4830,2680,1,2,2
0,4831,1060,-1,2,2
0,4832,2600,1,2,2
0,4833,3110,-1,2,2
0,4834,2600,-1,2,2
0,4835,2150,1,2,2
0,4836,3320,-1,2,2
0,4837,390,-1,2,2
0,4838,3680,-1,2,2
0,4839,1510,1,2,2
0,4840,3590,1,2,2
0,4841,2250,1,2,2
0,4842,7010,-1,2,2
0,4843,1010,-1,2,2
0,4844,880,-1,2,2
0,4845,7820,-1,2,2
0,4846,1050,-1,2,2
0,4847,1890,1,2,2
0,4848,5540,-1,2,2
0,4849,1920,1,2,2
0,4850,1670,1,2,2
0,4851,4290,-1,2,2
0,4852,3140,-1,2,2
0,4853,2180,-1,2,2
0,4854,1250,-1,2,2
0,4855,2110,1,2,2
0,4856,1880,-1,2,2
0,4857,2820,-1,2,2
0,4858,1120,-1,2,2
0,4859,1630,1,2,2
0,4860,1540,1,2,2
0,4861,2460,-1,2,2
0,4862,740,1,2,2
0,4863,2450,1,2,2
0,4864,1210,-1,2,2
0,4865,1070,-1,2,2
0,4866,270,-1,2,2
0,4867,1860,1,2,2
0,4868,1090,-1,2,2
0,4869,560,1,2,2
0,4870,630,1,2,2
0,4871,1980,-1,2,2
0,4872,3830,1,2,2
0,4873,4680,-1,2,2
0,4874,1600,1,2,2
0,4875,1010,-1,2,2
0,4876,2720,1,2,2
0,4877,970,-1,2,2
0,4878,530,1,2,2
0,4879,4270,-1,2,2
0,4880,850,1,2,2
0,4881,3340,-1,2,2
0,4882,3760,-1,2,2
0,4883,3760,-1,2,2
0,4884,1420,1,2,2
0,4885,2700,1,2,2
0,4886,2030,-1,2,2
0,4887,1440,1,2,2
0,4888,1890,-1,2,2
0,4889,6440,-1,2,2
0,4890,4680,1,2,2
0,4891,1300,-1,2,2
0,4892,2890,-1,2,2
0,4893,3320,-1,2,2
0,4894,3520,-1,2,2
0,4895,2910,-1,2,2
0,4896,1620,-1,2,2
0,4897,2980,1,2,2
0,4898,560,1,2,2
0,4899,4140,1,2,2
0,4900,3940,1,2,2
0,4901,4690,1,2,2
0,4902,3990,-1,2,2
0,4903,1730,1,2,2
0,4904,4030,-1,2,2
0,4905,8480,-1,2,2
0,4906,630,-1,2,2
0,4907,620,1,2,2
0,4908,320,-1,2,2
0,4909,2110,1,2,2
0,4910,3190,-1,2,2
0,4911,1390,-1,2,2
0,4912,2830,-1,2,2
0,4913,910,-1,2,2
0,4914,1400,-1,2,2
0,4915,1290,-1,2,2
0,4916,530,-1,2,2
0,4917,3550,1,2,2
0,4918,3850,-1,2,2
0,4919,5090,1,2,2
0,4920,4240,1,2,2
0,4921,880,-1,2,2
0,4922,1300,-1,2,2
0,4923,650,-1,2,2
0,4924,5640,-1,2,2
0,4925,3940,-1,2,2
0,4926,2940,1,2,2
0,4927,1980,1,2,2
0,4928,1520,1,2,2
0,4929,1760,-1,2,2
0,4930,1590,-1,2,2
0,4931,4300,1,2,2
0,4932,4820,-1,2,2
0,4933,1030,-1,2,2
0,4934,5150,1,2,2
0,4935,5520,1,2,2
0,4936,1990,-1,2,2
0,4937,2750,-1,2,2
0,4938,2380,-1,2,2
0,4939,990,1,2,2
0,4940,2310,-1,2,2
0,4941,830,-1,2,2
0,4942,4650,1,2,2
0,4943,4800,1,2,2
0,4944,570,1,2,2
0,4945,1380,-1,2,2
0,4946,930,-1,2,2
0,4947,940,1,2,2
0,4948,7440,1,2,2
0,4949,4020,-1,2,2
0,4950,2190,1,2,2
0,4951,5400,1,2,2
0,4952,1480,1,2,2
0,4953,3610,1,2,2
0,4954,720,-1,2,2
0,4955,2530,1,2,2
0,4956,3310,-1,2,2
0,4957,5330,-1,2,2
0,4958,1120,1,2,2
0,4959,4950,-1,2,2
0,4960,3020,-1,2,2
0,4961,1860,-1,2,2
0,4962,3080,1,2,2
0,4963,730,-1,2,2
0,4964,3000,-1,2,2
0,4965,5410,1,2,2
0,4966,3890,1,2,2
0,4967,1880,1,2,2
0,4968,1540,1,2,2
0,4969,2720,-1,2,2
0,4970,2180,1,2,2
0,4971,15980,1,2,2
0,4972,880,1,2,2
0,4973,4030,-1,2,2
0,4974,7310,-1,2,2
0,4975,1870,1,2,2
0,4976,850,1,2,2
0,4977,6830,-1,2,2
0,4978,2040,-1,2,2
0,4979,1860,1,2,2
0,4980,4370,-1,2,2
0,4981,7970,-1,2,2
0,4982,7330,-1,2,2
0,4983,1940,-1,2,2
0,4984,6160,-1,2,2
0,4985,1430,-1,2,2
0,4986,1320,-1,2,2
0,4987,5220,-1,2,2
0,4988,2210,-1,2,2
0,4989,1980,1,2,2
0,4990,1950,1,2,2
0,4991,13820,-1,2,2
0,4992,2600,-1,2,2
0,4993,3580,-1,2,2
0,4994,2010,-1,2,2
0,4995,5720,1,2,2
0,4996,3980,-1,2,2
0,4997,2850,-1,2,2
0,4998,1210,1,2,2
0,4999,4380,1,2,2
0,5000,5520,-1,2,2
0,5001,680,-1,2,2
0,5002,2080,-1,2,2
0,5003,1220,1,2,2
0,5004,2360,-1,2,2
0,5005,690,1,2,2
0,5006,8530,-1,2,2
0,5007,1760,1,2,2
0,5008,1050,-1,2,2
0,5009,9480,1,2,2
0,5010,1200,-1,2,2
0,5011,1230,1,2,2
0,5012,1510,1,2,2
0,5013,2840,-1,2,2
0,5014,9660,-1,2,2
0,5015,700,-1,2,2
0,5016,1120,1,2,2
0,5017,3470,-1,2,2
0,5018,2850,-1,2,2
0,5019,740,-1,2,2
0,5020,7200,-1,2,2
0,5021,2500,-1,2,2
0,5022,7100,1,2,2
0,5023,9680,1,2,2
0,5024,1590,1,2,2
0,5025,920,1,2,2
0,5026,3000,-1,2,2
0,5027,3650,1,2,2
0,5028,3130,-1,2,2
0,5029,2980,-1,2,2
0,5030,580,-1,2,2
0,5031,1610,-1,2,2
0,5032,1150,-1,2,2
0,5033,720,1,2,2
0,5034,1780,-1,2,2
0,5035,2730,-1,2,2
0,5036,1780,-1,2,2
0,5037,3660,1,2,2
0,5038,1120,1,2,2
0,5039,530,-1,2,2
0,5040,740,-1,2,2
0,5041,1160,1,2,2
0,5042,580,-1,2,2
0,5043,9050,1,2,2
0,5044,2700,-1,2,2
0,5045,4740,-1,2,2
0,5046,1120,-1,2,2
0,5047,490,-1,2,2
0,5048,2770,-1,2,2
0,5049,5780,-1,2,2
0,5050,1200,-1,2,2
0,5051,2210,1,2,2
0,5052,5800,-1,2,2
0,5053,3400,-1,2,2
0,5054,1280,1,2,2
0,5055,810,-1,2,2
0,5056,570,-1,2,2
0,5057,3600,-1,2,2
0,5058,10320,-1,2,2
0,5059,980,-1,2,2
0,5060,8370,-1,2,2
0,5061,1050,-1,2,2
0,5062,7740,-1,2,2
0,5063,450,-1,2,2
0,5064,1500,-1,2,2
0,5065,1500,1,2,2
0,5066,750,1,2,2
0,5067,960,1,2,2
0,5068,4420,-1,2,2
0,5069,1530,-1,2,2
0,5070,15750,-1,2,2
0,5071,6620,-1,2,2
0,5072,2080,1,2,2
0,5073,1250,-1,2,2
0,5074,3320,-1,2,2
0,5075,2970,1,2,2
0,5076,870,-1,2,2
0,5077,4170,1,2,2
0,5078,1500,-1,2,2
0,5079,1810,1,2,2
0,5080,1130,1,2,2
0,5081,810,1,2,2
0,5082,3740,1,2,2
0,5083,790,1,2,2
0,5084,4350,-1,2,2
0,5085,2500,1,2,2
0,5086,2170,1,2,2
0,5087,1510,-1,2,2
0,5088,3730,1,2,2
0,5089,1380,-1,2,2
0,5090,3320,-1,2,2
0,5091,3570,-1,2,2
0,5092,2690,-1,2,2
0,5093,1490,1,2,2
0,5094,1100,1,2,2
0,5095,2700,1,2,2
0,5096,3600,-1,2,2
0,5097,3550,1,2,2
0,5098,3630,1,2,2
0,5099,2570,-1,2,2
0,5100,1550,1,2,3
0,5101,1260,1,2,3
0,5102,1520,-1,2,3
0,5103,3470,1,2,3
0,5104,3930,1,2,3
0,5105,1400,1,2,3
0,5106,1010,-1,2,3
0,5107,6400,1,2,3
0,5108,1320,1,2,3
0,5109,1840,-1,2,3
0,5110,3330,1,2,3
0,5111,4800,1,2,3
0,5112,940,1,2,3
0,5113,1590,1,2,3
0,5114,3700,1,2,3
0,5115,1530,1,2,3
0,5116,1230,1,2,3
0,5117,3170,1,2,3
0,5118,1710,1,2,3
0,5119,5760,1,2,3
0,5120,4530,-1,2,3
0,5121,1060,1,2,3
0,5122,2930,1,2,3
0,5123,860,1,2,3
0,5124,2840,1,2,3
0,5125,6530,1,2,3
0,5126,650,-1,2,3
0,5127,950,-1,2,3
0,5128,350,-1,2,3
0,5129,3420,1,2,3
0,5130,750,1,2,3
0,5131,1130,1,2,3
0,5132,3040,-1,2,3
0,5133,2020,1,2,3
0,5134,1490,1,2,3
0,5135,7080,1,2,3
0,5136,1890,1,2,3
0,5137,4180,1,2,3
0,5138,1540,1,2,3
0,5139,640,-1,2,3
0,5140,3770,1,2,3
0,5141,7340,1,2,3
0,5142,1250,-1,2,3
0,5143,1370,1,2,3
0,5144,1100,-1,2,3
0,5145,1660,1,2,3
0,5146,4440,1,2,3
0,5147,4720,1,2,3
0,5148,2130,1,2,3
0,5149,10770,1,2,3
0,5150,6350,1,2,3
0,5151,6940,1,2,3
0,5152,1150,-1,2,3
0,5153,1710,1,2,3
0,5154,710,1,2,3
0,5155,1270,-1,2,3
0,5156,1080,1,2,3
0,5157,7860,1,2,3
0,5158,2650,1,2,3
0,5159,5810,1,2,3
0,5160,810,-1,2,3
0,5161,3370,1,2,3
0,5162,760,1,2,3
0,5163,960,1,2,3
0,5164,940,1,2,3
0,5165,4770,1,2,3
0,5166,2240,1,2,3
0,5167,1450,-1,2,3
0,5168,2290,1,2,3
0,5169,1850,-1,2,3
0,5170,2730,-1,2,3
0,5171,2720,1,2,3
0,5172,4960,1,2,3
0,5173,2750,1,2,3
0,5174,1660,1,2,3
0,5175,6530,-1,2,3
0,5176,2540,1,2,3
0,5177,1230,-1,2,3
0,5178,1120,1,2,3
0,5179,5120,1,2,3
0,5180,1300,-1,2,3
0,5181,1070,1,2,3
0,5182,2240,1,2,3
0,5183,750,1,2,3
0,5184,3770,-1,2,3
0,5185,750,-1,2,3
0,5186,5250,-1,2,3
0,5187,1910,1,2,3
0,5188,3780,1,2,3
0,5189,2800,1,2,3
0,5190,1530,1,2,3
0,5191,510,1,2,3
0,5192,4000,1,2,3
0,5193,2420,-1,2,3
0,5194,6070,1,2,3
0,5195,660,1,2,3
0,5196,1150,1,2,3
0,5197,5500,1,2,3
0,5198,630,1,2,3
0,5199,6890,1,2,3
0,5200,4300,-1,2,3
0,5201,780,1,2,3
0,5202,3160,1,2,3
0,5203,1340,1,2,3
0,5204,1640,1,2,3
0,5205,3490,1,2,3
0,5206,3740,1,2,3
0,5207,2550,1,2,3
0,5208,2460,1,2,3
0,5209,1230,-1,2,3
0,5210,1140,-1,2,3
0,5211,690,1,2,3
0,5212,1670,1,2,3
0,5213,2260,1,2,3
0,5214,1710,1,2,3
0,5215,2320,1,2,3
0,5216,1480,1,2,3
0,5217,860,1,2,3
0,5218,410,-1,2,3
0,5219,1060,-1,2,3
0,5220,580,-1,2,3
0,5221,1910,1,2,3
0,5222,11830,1,2,3
0,5223,2770,1,2,3
0,5224,10470,1,2,3
0,5225,9200,1,2,3
0,5226,2400,-1,2,3
0,5227,2860,-1,2,3
0,5228,3290,1,2,3
0,5229,1990,1,2,3
0,5230,3200,1,2,3
0,5231,1770,1,2,3
0,5232,1610,1,2,3
0,5233,1900,1,2,3
0,5234,350,-1,2,3
0,5235,2470,1,2,3
0,5236,3560,1,2,3
0,5237,880,-1,2,3
0,5238,1560,-1,2,3
0,5239,1860,1,2,3
0,5240,1000,1,2,3
0,5241,940,1,2,3
0,5242,4120,1,2,3
0,5243,1340,1,2,3
0,5244,550,1,2,3
0,5245,3970,-1,2,3
0,5246,1740,1,2,3
0,5247,3080,1,2,3
0,5248,2290,1,2,3
0,5249,1080,1,2,3
0,5250,1520,1,2,3
0,5251,3550,-1,2,3
0,5252,3020,1,2,3
0,5253,3530,1,2,3
0,5254,900,1,2,3
0,5255,5420,-1,2,3
0,5256,1850,1,2,3
0,5257,1040,1,2,3
0,5258,3090,1,2,3
0,5259,4920,-1,2,3
0,5260,3150,-1,2,3
0,5261,780,1,2,3
0,5262,970,1,2,3
0,5263,5790,1,2,3
0,5264,6960,1,2,3
0,5265,1690,-1,2,3
0,5266,1510,1,2,3
0,5267,1950,-1,2,3
0,5268,4380,1,2,3
0,5269,310,1,2,3
0,5270,4410,1,2,3
0,5271,1950,1,2,3
0,5272,1630,1,2,3
0,5273,1030,-1,2,3
0,5274,660,1,2,3
0,5275,4010,-1,2,3
0,5276,4880,1,2,3
0,5277,6990,-1,2,3
0,5278,1470,1,2,3
0,5279,1310,-1,2,3
0,5280,1440,1,2,3
0,5281,2880,1,2,3
0,5282,5810,1,2,3
0,5283,2160,1,2,3
0,5284,740,1,2,3
0,5285,1000,-1,2,3
0,5286,1940,1,2,3
0,5287,1560,1,2,3
0,5288,820,1,2,3
0,5289,880,-1,2,3
0,5290,600,1,2,3
0,5291,6610,1,2,3
0,5292,1290,1,2,3
0,5293,3290,1,2,3
0,5294,2680,1,2,3
0,5295,900,1,2,3
0,5296,4120,1,2,3
0,5297,610,-1,2,3
0,5298,1050,1,2,3
0,5299,770,-1,2,3
0,5300,1410,1,2,3
0,5301,3230,1,2,3
0,5302,2460,-1,2,3
0,5303,1150,-1,2,3
0,5304,5570,1,2,3
0,5305,1030,1,2,3
0,5306,2470,1,2,3
0,5307,6360,1,2,3
0,5308,6480,1,2,3
0,5309,3380,1,2,3
0,5310,940,-1,2,3
0,5311,1350,1,2,3
0,5312,3900,1,2,3
0,5313,5390,-1,2,3
0,5314,1880,-1,2,3
0,5315,8600,1,2,3
0,5316,860,-1,2,3
0,5317,1980,-1,2,3
0,5318,890,-1,2,3
0,5319,780,1,2,3
0,5320,890,1,2,3
0,5321,3600,1,2,3
0,5322,590,1,2,3
0,5323,1150,1,2,3
0,5324,4300,1,2,3
0,5325,1000,1,2,3
0,5326,6470,1,2,3
0,5327,1610,-1,2,3
0,5328,3430,1,2,3
0,5329,500,1,2,3
0,5330,2850,1,2,3
0,5331,1300,1,2,3
0,5332,850,1,2,3
0,5333,3270,1,2,3
0,5334,3360,1,2,3
0,5335,510,1,2,3
0,5336,5090,1,2,3
0,5337,1700,1,2,3
0,5338,1280,-1,2,3
0,5339,2050,1,2,3
0,5340,2020,1,2,3
0,5341,1760,-1,2,3
0,5342,1100,1,2,3
0,5343,570,-1,2,3
0,5344,2740,1,2,3
0,5345,3010,1,2,3
0,5346,580,-1,2,3
0,5347,1050,1,2,3
0,5348,2430,1,2,3
0,5349,3610,1,2,3
0,5350,3110,1,2,3
0,5351,1820,1,2,3
0,5352,3730,1,2,3
0,5353,2350,-1,2,3
0,5354,620,-1,2,3
0,5355,1880,1,2,3
0,5356,4270,-1,2,3
0,5357,860,-1,2,3
0,5358,8160,1,2,3
0,5359,2030,1,2,3
0,5360,2910,1,2,3
0,5361,480,-1,2,3
0,5362,1640,1,2,3
0,5363,3210,1,2,3
0,5364,2710,1,2,3
0,5365,1120,1,2,3
0,5366,600,-1,2,3
0,5367,3860,1,2,3
0,5368,1430,1,2,3
0,5369,660,1,2,3
0,5370,560,1,2,3
0,5371,1000,-1,2,3
0,5372,2530,1,2,3
0,5373,720,1,2,3
0,5374,5250,1,2,3
0,5375,1160,1,2,3
0,5376,1200,-1,2,3
0,5377,1550,1,2,3
0,5378,230,1,2,3
0,5379,4070,-1,2,3
0,5380,410,-1,2,3
0,5381,600,1,2,3
0,5382,190,-1,2,3
0,5383,1320,1,2,3
0,5384,300,-1,2,3
0,5385,510,1,2,3
0,5386,1610,1,2,3
0,5387,3600,-1,2,3
0,5388,2070,1,2,3
0,5389,2140,-1,2,3
0,5390,7030,1,2,3
0,5391,680,1,2,3
0,5392,1380,1,2,3
0,5393,2050,1,2,3
0,5394,2330,-1,2,3
0,5395,380,1,2,3
0,5396,1340,-1,2,3
0,5397,1320,1,2,3
0,5398,400,-1,2,3
0,5399,2830,-1,2,3
0,5400,2670,-1,3,0
0,5401,3880,-1,3,0
0,5402,2440,-1,3,0
0,5403,1760,-1,3,0
0,5404,1290,-1,3,0
0,5405,1220,-1,3,0
0,5406,780,-1,3,0
0,5407,950,-1,3,0
0,5408,1020,-1,3,0
0,5409,1740,-1,3,0
0,5410,1220,-1,3,0
0,5411,720,-1,3,0
0,5412,1160,1,3,0
0,5413,1780,-1,3,0
0,5414,1360,-1,3,0
0,5415,480,-1,3,0
0,5416,2720,-1,3,0
0,5417,1240,-1,3,0
0,5418,1860,-1,3,0
0,5419,3690,-1,3,0
0,5420,700,-1,3,0
0,5421,940,-1,3,0
0,5422,2720,-1,3,0
0,5423,3010,-1,3,0
0,5424,960,-1,3,0
0,5425,1990,-1,3,0
0,5426,2480,-1,3,0
0,5427,730,-1,3,0
0,5428,1130,-1,3,0
0,5429,1020,-1,3,0
0,5430,1710,-1,3,0
0,5431,1180,1,3,0
0,5432,3910,-1,3,0
0,5433,920,-1,3,0
0,5434,890,-1,3,0
0,5435,860,-1,3,0
0,5436,3030,-1,3,0
0,5437,2290,-1,3,0
0,5438,680,-1,3,0
0,5439,1000,-1,3,0
0,5440,1530,-1,3,0
0,5441,1780,-1,3,0
0,5442,2620,-1,3,0
0,5443,670,-1,3,0
0,5444,970,-1,3,0
0,5445,2520,-1,3,0
0,5446,1640,1,3,0
0,5447,1150,-1,3,0
0,5448,1750,-1,3,0
0,5449,1480,-1,3,0
0,5450,1500,-1,3,0
0,5451,2400,-1,3,0
0,5452,2060,-1,3,0
0,5453,1610,-1,3,0
0,5454,510,-1,3,0
0,5455,520,-1,3,0
0,5456,2810,-1,3,0
0,5457,750,-1,3,0
0,5458,2830,-1,3,0
0,5459,2650,-1,3,0
0,5460,390,-1,3,0
0,5461,590,-1,3,0
0,5462,1370,-1,3,0
0,5463,1920,-1,3,0
0,5464,3230,-1,3,0
0,5465,3830,-1,3,0
0,5466,1090,-1,3,0
0,5467,1750,1,3,0
0,5468,2160,-1,3,0
0,5469,730,-1,3,0
0,5470,1820,-1,3,0
0,5471,1270,-1,3,0
0,5472,1400,-1,3,0
0,5473,930,-1,3,0
0,5474,1080,-1,3,0
0,5475,1010,-1,3,0
0,5476,2770,-1,3,0
0,5477,720,-1,3,0
0,5478,970,-1,3,0
0,5479,2750,-1,3,0
0,5480,3720,-1,3,0
0,5481,690,-1,3,0
0,5482,540,-1,3,0
0,5483,420,-1,3,0
0,5484,2440,-1,3,0
0,5485,1500,-1,3,0
0,5486,1570,-1,3,0
0,5487,3450,-1,3,0
0,5488,3820,-1,3,0
0,5489,2420,-1,3,0
0,5490,1800,-1,3,0
0,5491,820,-1,3,0
0,5492,1350,-1,3,0
0,5493,640,-1,3,0
0,5494,4040,-1,3,0
0,5495,630,-1,3,0
0,5496,1510,-1,3,0
0,5497,1850,-1,3,0
0,5498,870,-1,3,0
0,5499,1220,-1,3,0
0,5500,1040,-1,3,0
0,5501,910,-1,3,0
0,5502,2090,-1,3,0
0,5503,520,-1,3,0
0,5504,2210,1,3,0
0,5505,2560,-1,3,0
0,5506,1220,-1,3,0
0,5507,360,-1,3,0
0,5508,1120,-1,3,0
0,5509,2170,-1,3,0
0,5510,1900,-1,3,0
0,5511,2410,-1,3,0
0,5512,620,-1,3,0
0,5513,1070,-1,3,0
0,5514,650,-1,3,0
0,5515,1560,-1,3,0
0,5516,1130,-1,3,0
0,5517,2670,-1,3,0
0,5518,470,-1,3,0
0,5519,1150,-1,3,0
0,5520,1770,-1,3,0
0,5521,2570,-1,3,0
0,5522,2090,-1,3,0
0,5523,1070,-1,3,0
0,5524,1890,-1,3,0
0,5525,1840,-1,3,0
0,5526,1230,1,3,0
0,5527,580,-1,3,0
0,5528,1740,-1,3,0
0,5529,1500,-1,3,0
0,5530,1440,-1,3,0
0,5531,1480,-1,3,0
