parcode,trial,rt,choice,item_left,item_right
0,0,1210,1,0,0
0,1,3030,-1,0,0
0,2,6110,1,0,0
0,3,5220,1,0,0
0,4,8510,-1,0,0
0,5,7870,1,0,0
0,6,3670,1,0,0
0,7,2260,-1,0,0
0,8,4770,-1,0,0
0,9,2740,-1,0,0
0,10,4700,1,0,0
0,11,2330,-1,0,0
0,12,4410,1,0,0
0,13,1410,1,0,0
0,14,2980,1,0,0
0,15,4150,-1,0,0
0,16,1380,-1,0,0
0,17,2850,-1,0,0
0,18,4280,1,0,0
0,19,900,-1,0,0
0,20,1300,-1,0,0
0,21,7240,1,0,0
0,22,2050,1,0,0
0,23,2300,-1,0,0
0,24,3100,1,0,0
0,25,450,1,0,0
0,26,1910,-1,0,0
0,27,2030,-1,0,0
0,28,8670,1,0,0
0,29,1550,-1,0,0
0,30,8770,-1,0,0
0,31,2580,-1,0,0
0,32,680,-1,0,0
0,33,4910,-1,0,0
0,34,1660,-1,0,0
0,35,4310,-1,0,0
0,36,1570,-1,0,0
0,37,3070,-1,0,0
0,38,3350,-1,0,0
0,39,2030,-1,0,0
0,40,1910,-1,0,0
0,41,1200,-1,0,0
0,42,2670,-1,0,0
0,43,2630,-1,0,0
0,44,5680,-1,0,0
0,45,2360,-1,0,0
0,46,1880,1,0,0
0,47,610,1,0,0
0,48,3400,-1,0,0
0,49,3150,-1,0,0
0,50,3130,-1,0,0
0,51,1890,-1,0,0
0,52,2190,1,0,0
0,53,1300,1,0,0
0,54,3040,-1,0,0
0,55,880,1,0,0
0,56,4130,1,0,0
0,57,1230,-1,0,0
0,58,2050,-1,0,0
0,59,2260,-1,0,0
0,60,4490,1,0,0
0,61,1520,-1,0,0
0,62,910,-1,0,0
0,63,5100,1,0,0
0,64,3140,1,0,0
0,65,1850,-1,0,0
0,66,9660,1,0,0
0,67,2090,1,0,0
0,68,510,1,0,0
0,69,3550,1,0,0
0,70,550,-1,0,0
0,71,990,-1,0,0
0,72,1130,1,0,0
0,73,4200,-1,0,0
0,74,2240,1,0,0
0,75,770,-1,0,0
0,76,670,1,0,0
0,77,2810,1,0,0
0,78,9680,1,0,0
0,79,1570,-1,0,0
0,80,4030,1,0,0
0,81,2170,-1,0,0
0,82,1740,1,0,0
0,83,2200,1,0,0
0,84,920,1,0,0
0,85,600,-1,0,0
0,86,2200,1,0,0
0,87,2770,1,0,0
0,88,940,1,0,0
0,89,5430,1,0,0
0,90,4150,-1,0,0
0,91,1050,-1,0,0
0,92,2450,-1,0,0
0,93,1080,-1,0,0
0,94,5330,1,0,0
0,95,910,1,0,0
0,96,670,-1,0,0
0,97,920,-1,0,0
0,98,2350,-1,0,0
0,99,3790,-1,0,0
0,100,870,-1,0,0
0,101,810,1,0,0
0,102,1240,1,0,0
0,103,1610,1,0,0
0,104,3870,-1,0,0
0,105,2900,1,0,0
0,106,2570,-1,0,0
0,107,1840,1,0,0
0,108,2300,-1,0,0
0,109,1690,1,0,0
0,110,3880,1,0,0
0,111,2050,-1,0,0
0,112,4010,-1,0,0
0,113,790,1,0,0
0,114,6230,1,0,0
0,115,1950,1,0,0
0,116,7050,-1,0,0
0,117,1980,-1,0,0
0,118,7530,1,0,0
0,119,1440,-1,0,0
0,120,3970,1,0,0
0,121,2770,1,0,0
0,122,3090,1,0,0
0,123,2870,-1,0,0
0,124,2580,1,0,0
0,125,5480,1,0,0
0,126,400,1,0,0
0,127,1930,1,0,0
0,128,860,1,0,0
0,129,6500,1,0,0
0,130,2040,1,0,0
0,131,1290,-1,0,0
0,132,7630,1,0,0
0,133,3080,1,0,0
0,134,8330,1,0,0
0,135,5020,1,0,0
0,136,2400,-1,0,0
0,137,7350,1,0,0
0,138,7700,1,0,0
0,139,3170,-1,0,0
0,140,6140,1,0,0
0,141,7250,-1,0,0
0,142,2190,1,0,0
0,143,1600,-1,0,0
0,144,4250,1,0,0
0,145,910,1,0,0
0,146,1370,1,0,0
0,147,2220,1,0,0
0,148,410,1,0,0
0,149,3210,-1,0,0
0,150,1880,-1,0,0
0,151,3270,1,0,0
0,152,1050,1,0,0
0,153,1050,1,0,0
0,154,1140,-1,0,0
0,155,4700,1,0,0
0,156,3050,1,0,0
0,157,1900,1,0,0
0,158,1390,1,0,0
0,159,1060,1,0,0
0,160,1000,1,0,0
0,161,2400,1,0,0
0,162,4950,-1,0,0
0,163,1960,-1,0,0
0,164,2080,1,0,0
0,165,2180,-1,0,0
0,166,6910,-1,0,0
0,167,2550,-1,0,0
0,168,630,-1,0,0
0,169,1340,1,0,0
0,170,5690,-1,0,0
0,171,4130,-1,0,0
0,172,3020,1,0,0
0,173,7600,-1,0,0
0,174,5970,1,0,0
0,175,750,1,0,0
0,176,2660,1,0,0
0,177,2510,-1,0,0
0,178,2140,-1,0,0
0,179,8330,-1,0,0
0,180,3070,1,0,0
0,181,3270,-1,0,0
0,182,1980,-1,0,0
0,183,4190,1,0,0
0,184,3760,1,0,0
0,185,7380,1,0,0
0,186,1680,-1,0,0
0,187,560,1,0,0
0,188,3880,-1,0,0
0,189,1480,-1,0,0
0,190,450,-1,0,0
0,191,1460,-1,0,0
0,192,1140,1,0,0
0,193,1620,-1,0,0
0,194,11150,1,0,0
0,195,2630,1,0,0
0,196,4990,1,0,0
0,197,8840,-1,0,0
0,198,1800,1,0,0
0,199,1220,1,0,0
0,200,3380,1,0,0
0,201,880,-1,0,0
0,202,2380,1,0,0
0,203,1920,-1,0,0
0,204,2470,1,0,0
0,205,12060,-1,0,0
0,206,3910,-1,0,0
0,207,1270,-1,0,0
0,208,770,1,0,0
0,209,1350,-1,0,0
0,210,6640,1,0,0
0,211,1010,1,0,0
0,212,4530,1,0,0
0,213,5530,1,0,0
0,214,5990,-1,0,0
0,215,7950,-1,0,0
0,216,1980,1,0,0
0,217,1110,-1,0,0
0,218,3230,-1,0,0
0,219,9120,1,0,0
0,220,940,1,0,0
0,221,920,1,0,0
0,222,1950,1,0,0
0,223,1080,1,0,0
0,224,2820,-1,0,0
0,225,1400,-1,0,0
0,226,6490,-1,0,0
0,227,3030,-1,0,0
0,228,700,-1,0,0
0,229,9450,1,0,0
0,230,1590,1,0,0
0,231,1170,1,0,0
0,232,2270,1,0,0
0,233,1620,-1,0,0
0,234,4650,-1,0,0
0,235,8890,1,0,0
0,236,1630,1,0,0
0,237,1820,-1,0,0
0,238,900,-1,0,0
0,239,10100,1,0,0
0,240,2350,1,0,0
0,241,980,-1,0,0
0,242,2740,-1,0,0
0,243,1140,-1,0,0
0,244,2740,1,0,0
0,245,5640,-1,0,0
0,246,3430,1,0,0
0,247,2100,-1,0,0
0,248,1770,-1,0,0
0,249,3180,1,0,0
0,250,4020,-1,0,0
0,251,1470,1,0,0
0,252,1940,-1,0,0
0,253,850,1,0,0
0,254,880,1,0,0
0,255,1050,1,0,0
0,256,2270,-1,0,0
0,257,1260,-1,0,0
0,258,5290,1,0,0
0,259,1760,-1,0,0
0,260,4030,-1,0,0
0,261,3100,-1,0,0
0,262,1880,1,0,0
0,263,1660,1,0,0
0,264,9950,-1,0,0
0,265,1290,-1,0,0
0,266,8640,-1,0,0
0,267,6560,-1,0,0
0,268,1300,1,0,0
0,269,510,-1,0,0
0,270,340,-1,0,0
0,271,6510,-1,0,0
0,272,4560,1,0,0
0,273,5070,1,0,0
0,274,1370,1,0,0
0,275,1700,1,0,0
0,276,3370,1,0,0
0,277,1690,-1,0,0
0,278,3390,-1,0,0
0,279,1800,-1,0,0
0,280,650,1,0,0
0,281,4910,1,0,0
0,282,6400,1,0,0
0,283,1280,1,0,0
0,284,1340,-1,0,0
0,285,6310,-1,0,0
0,286,2580,1,0,0
0,287,2040,1,0,0
0,288,2580,-1,0,0
0,289,700,-1,0,0
0,290,1780,1,0,0
0,291,11260,1,0,0
0,292,740,1,0,0
0,293,5340,-1,0,0
0,294,3360,1,0,0
0,295,1500,-1,0,0
0,296,480,1,0,0
0,297,4300,-1,0,0
0,298,1690,1,0,0
0,299,5660,-1,0,0
0,300,4660,1,0,1
0,301,3220,1,0,1
0,302,2000,1,0,1
0,303,3000,1,0,1
0,304,420,1,0,1
0,305,5160,-1,0,1
0,306,11910,1,0,1
0,307,3770,1,0,1
0,308,2100,1,0,1
0,309,3020,-1,0,1
0,310,580,1,0,1
0,311,4930,-1,0,1
0,312,4090,-1,0,1
0,313,2220,-1,0,1
0,314,920,1,0,1
0,315,2270,1,0,1
0,316,1230,-1,0,1
0,317,850,-1,0,1
0,318,1520,-1,0,1
0,319,1570,1,0,1
0,320,1490,1,0,1
0,321,960,1,0,1
0,322,5210,-1,0,1
0,323,830,-1,0,1
0,324,2490,1,0,1
0,325,2460,-1,0,1
0,326,4700,1,0,1
0,327,720,-1,0,1
0,328,3610,1,0,1
0,329,1000,1,0,1
0,330,1680,1,0,1
0,331,1010,-1,0,1
0,332,1250,1,0,1
0,333,5200,1,0,1
0,334,1560,1,0,1
0,335,1080,-1,0,1
0,336,2660,1,0,1
0,337,1870,1,0,1
0,338,990,-1,0,1
0,339,4520,1,0,1
0,340,2380,1,0,1
0,341,1530,1,0,1
0,342,5410,-1,0,1
0,343,8410,1,0,1
0,344,3400,-1,0,1
0,345,2200,1,0,1
0,346,1430,-1,0,1
0,347,5140,-1,0,1
0,348,2580,-1,0,1
0,349,1170,1,0,1
0,350,600,1,0,1
0,351,4090,1,0,1
0,352,1390,1,0,1
0,353,1050,1,0,1
0,354,2550,-1,0,1
0,355,2040,-1,0,1
0,356,1780,1,0,1
0,357,1350,-1,0,1
0,358,770,-1,0,1
0,359,2100,1,0,1
0,360,12460,1,0,1
0,361,9280,1,0,1
0,362,1210,-1,0,1
0,363,2100,1,0,1
0,364,760,1,0,1
0,365,5600,-1,0,1
0,366,880,1,0,1
0,367,1420,-1,0,1
0,368,4730,1,0,1
0,369,6580,-1,0,1
0,370,1220,1,0,1
0,371,2760,-1,0,1
0,372,2390,1,0,1
0,373,850,-1,0,1
0,374,5270,1,0,1
0,375,2320,1,0,1
0,376,850,1,0,1
0,377,7550,1,0,1
0,378,1610,1,0,1
0,379,2510,-1,0,1
0,380,630,-1,0,1
0,381,1740,1,0,1
0,382,2480,1,0,1
0,383,1380,1,0,1
0,384,1070,1,0,1
0,385,7830,1,0,1
0,386,630,1,0,1
0,387,1090,1,0,1
0,388,5370,1,0,1
0,389,1840,-1,0,1
0,390,1960,1,0,1
0,391,1540,-1,0,1
0,392,4670,1,0,1
0,393,1930,1,0,1
0,394,720,1,0,1
0,395,820,-1,0,1
0,396,4810,1,0,1
0,397,5200,1,0,1
0,398,410,1,0,1
0,399,4370,1,0,1
0,400,640,1,0,1
0,401,2280,1,0,1
0,402,6240,1,0,1
0,403,5630,1,0,1
0,404,760,-1,0,1
0,405,2050,1,0,1
0,406,1660,-1,0,1
0,407,4120,1,0,1
0,408,2060,-1,0,1
0,409,1270,1,0,1
0,410,1090,1,0,1
0,411,1550,-1,0,1
0,412,550,1,0,1
0,413,340,-1,0,1
0,414,1790,1,0,1
0,415,860,1,0,1
0,416,1850,1,0,1
0,417,9860,-1,0,1
0,418,6800,1,0,1
0,419,540,1,0,1
0,420,2020,-1,0,1
0,421,2690,1,0,1
0,422,4520,1,0,1
0,423,3230,1,0,1
0,424,2480,-1,0,1
0,425,1680,1,0,1
0,426,570,-1,0,1
0,427,810,1,0,1
0,428,2440,1,0,1
0,429,360,1,0,1
0,430,610,1,0,1
0,431,3730,-1,0,1
0,432,3650,1,0,1
0,433,1680,-1,0,1
0,434,1930,1,0,1
0,435,4130,1,0,1
0,436,3850,-1,0,1
0,437,4130,-1,0,1
0,438,1710,-1,0,1
0,439,2410,-1,0,1
0,440,1330,1,0,1
0,441,3560,-1,0,1
0,442,6120,1,0,1
0,443,290,1,0,1
0,444,4230,-1,0,1
0,445,1130,-1,0,1
0,446,1570,1,0,1
0,447,3230,-1,0,1
0,448,1960,-1,0,1
0,449,1530,1,0,1
0,450,350,1,0,1
0,451,3260,1,0,1
0,452,1160,1,0,1
0,453,4450,1,0,1
0,454,9160,1,0,1
0,455,5230,-1,0,1
0,456,940,1,0,1
0,457,5650,-1,0,1
0,458,4500,1,0,1
0,459,4170,1,0,1
0,460,5050,1,0,1
0,461,6210,1,0,1
0,462,5170,1,0,1
0,463,6360,-1,0,1
0,464,510,1,0,1
0,465,1240,1,0,1
0,466,2300,1,0,1
0,467,2270,1,0,1
0,468,6390,1,0,1
0,469,1560,1,0,1
0,470,1490,1,0,1
0,471,3050,-1,0,1
0,472,2950,1,0,1
0,473,980,1,0,1
0,474,2440,-1,0,1
0,475,860,-1,0,1
0,476,7190,-1,0,1
0,477,380,1,0,1
0,478,3560,1,0,1
0,479,1570,1,0,1
0,480,2360,-1,0,1
0,481,1790,1,0,1
0,482,1720,1,0,1
0,483,3930,1,0,1
0,484,920,1,0,1
0,485,1650,-1,0,1
0,486,5330,1,0,1
0,487,4390,1,0,1
0,488,7510,1,0,1
0,489,3780,1,0,1
0,490,3170,1,0,1
0,491,850,1,0,1
0,492,7660,1,0,1
0,493,2190,1,0,1
0,494,2490,1,0,1
0,495,3510,1,0,1
0,496,4030,1,0,1
0,497,2580,1,0,1
0,498,1430,-1,0,1
0,499,5020,1,0,1
0,500,2780,-1,0,1
0,501,4620,1,0,1
0,502,610,1,0,1
0,503,1870,-1,0,1
0,504,1630,-1,0,1
0,505,2150,1,0,1
0,506,10230,1,0,1
0,507,2890,1,0,1
0,508,1710,1,0,1
0,509,1500,-1,0,1
0,510,1060,1,0,1
0,511,2490,-1,0,1
0,512,4470,-1,0,1
0,513,4780,1,0,1
0,514,1910,1,0,1
0,515,2860,1,0,1
0,516,9710,1,0,1
0,517,5800,-1,0,1
0,518,910,-1,0,1
0,519,1810,1,0,1
0,520,4660,-1,0,1
0,521,4330,-1,0,1
0,522,590,1,0,1
0,523,2790,1,0,1
0,524,1770,1,0,1
0,525,3930,-1,0,1
0,526,2710,1,0,1
0,527,2760,-1,0,1
0,528,4760,-1,0,1
0,529,2360,1,0,1
0,530,1090,1,0,1
0,531,4970,1,0,1
0,532,4640,1,0,1
0,533,2560,1,0,1
0,534,1510,1,0,1
0,535,1100,1,0,1
0,536,3460,1,0,1
0,537,530,-1,0,1
0,538,2200,1,0,1
0,539,1250,-1,0,1
0,540,4440,1,0,1
0,541,1070,-1,0,1
0,542,4450,1,0,1
0,543,1840,1,0,1
0,544,2170,1,0,1
0,545,1320,1,0,1
0,546,1750,1,0,1
0,547,2770,1,0,1
0,548,360,1,0,1
0,549,1550,1,0,1
0,550,3690,-1,0,1
0,551,1270,1,0,1
0,552,940,-1,0,1
0,553,4500,1,0,1
0,554,980,-1,0,1
0,555,1570,1,0,1
0,556,11130,1,0,1
0,557,1710,-1,0,1
0,558,3420,-1,0,1
0,559,1290,-1,0,1
0,560,1420,1,0,1
0,561,2070,-1,0,1
0,562,5160,-1,0,1
0,563,800,1,0,1
0,564,2480,1,0,1
0,565,1300,1,0,1
0,566,1140,1,0,1
0,567,2430,1,0,1
0,568,1840,1,0,1
0,569,2030,-1,0,1
0,570,1960,1,0,1
0,571,1340,1,0,1
0,572,2070,-1,0,1
0,573,1210,1,0,1
0,574,1740,1,0,1
0,575,4200,1,0,1
0,576,2640,1,0,1
0,577,4620,1,0,1
0,578,920,1,0,1
0,579,3150,1,0,1
0,580,4220,-1,0,1
0,581,5940,1,0,1
0,582,5010,1,0,1
0,583,1670,-1,0,1
0,584,5120,1,0,1
0,585,2510,-1,0,1
0,586,2810,1,0,1
0,587,1540,1,0,1
0,588,4260,1,0,1
0,589,5480,1,0,1
0,590,3990,1,0,1
0,591,1370,1,0,1
0,592,4510,-1,0,1
0,593,2180,-1,0,1
0,594,3020,-1,0,1
0,595,1890,-1,0,1
0,596,860,1,0,1
0,597,1930,1,0,1
0,598,700,-1,0,1
0,599,15160,1,0,1
0,600,1380,1,0,1
0,601,850,1,0,1
0,602,2650,-1,0,1
0,603,2630,1,0,1
0,604,5590,1,0,1
0,605,1400,1,0,1
0,606,1180,1,0,1
0,607,5180,1,0,1
0,608,2630,1,0,1
0,609,3560,1,0,1
0,610,1830,-1,0,1
0,611,720,-1,0,1
0,612,440,1,0,1
0,613,550,-1,0,1
0,614,1550,1,0,1
0,615,2160,1,0,1
0,616,10340,1,0,1
0,617,5480,1,0,1
0,618,4300,-1,0,1
0,619,4430,-1,0,1
0,620,3520,1,0,1
0,621,7710,1,0,1
0,622,890,1,0,1
0,623,1380,-1,0,1
0,624,480,-1,0,1
0,625,3820,-1,0,1
0,626,450,-1,0,1
0,627,510,1,0,1
0,628,2680,1,0,1
0,629,1170,1,0,1
0,630,1700,1,0,1
0,631,5340,1,0,1
0,632,600,-1,0,1
0,633,1450,1,0,1
0,634,1740,1,0,1
0,635,580,1,0,1
0,636,520,1,0,1
0,637,4430,1,0,1
0,638,680,-1,0,1
0,639,1460,1,0,1
0,640,1390,1,0,1
0,641,1370,-1,0,1
0,642,600,1,0,1
0,643,900,-1,0,1
0,644,2280,-1,0,1
0,645,2150,1,0,1
0,646,2890,-1,0,1
0,647,6880,-1,0,1
0,648,2020,-1,0,1
0,649,1820,-1,0,1
0,650,480,1,0,1
0,651,1570,1,0,1
0,652,1850,-1,0,1
0,653,2370,-1,0,1
0,654,1400,1,0,1
0,655,2670,1,0,1
0,656,8650,1,0,1
0,657,2200,-1,0,1
0,658,1370,-1,0,1
0,659,2370,-1,0,1
0,660,4410,1,0,1
0,661,4630,1,0,1
0,662,1800,1,0,1
0,663,5680,1,0,1
0,664,1460,-1,0,1
0,665,1070,1,0,1
0,666,6200,1,0,1
0,667,3100,1,0,1
0,668,4060,1,0,1
0,669,5620,-1,0,1
0,670,780,-1,0,1
0,671,1250,1,0,1
0,672,1280,-1,0,1
0,673,400,-1,0,1
0,674,3190,1,0,1
0,675,980,-1,0,1
0,676,1500,1,0,1
0,677,2000,1,0,1
0,678,5130,1,0,1
0,679,2800,-1,0,1
0,680,870,1,0,1
0,681,2590,1,0,1
0,682,3180,-1,0,1
0,683,4420,1,0,1
0,684,1610,1,0,1
0,685,980,1,0,1
0,686,3470,-1,0,1
0,687,900,1,0,1
0,688,3640,-1,0,1
0,689,3250,1,0,1
0,690,3850,1,0,1
0,691,2810,1,0,1
0,692,6340,-1,0,1
0,693,2560,1,0,1
0,694,1420,1,0,1
0,695,260,-1,0,1
0,696,1150,-1,0,1
0,697,2420,1,0,1
0,698,1750,-1,0,1
0,699,1470,1,0,1
0,700,790,1,0,1
0,701,1820,-1,0,1
0,702,2210,-1,0,1
0,703,3490,1,0,1
0,704,5510,1,0,1
0,705,450,1,0,1
0,706,670,1,0,1
0,707,1770,1,0,1
0,708,1090,1,0,1
0,709,2650,1,0,1
0,710,4600,1,0,1
0,711,4060,1,0,1
0,712,2380,1,0,1
0,713,1550,1,0,1
0,714,2780,1,0,1
0,715,2980,1,0,1
0,716,4340,1,0,1
0,717,1660,1,0,1
0,718,910,1,0,1
0,719,2110,1,0,1
0,720,2600,-1,0,1
0,721,2610,1,0,1
0,722,9590,1,0,1
0,723,1090,-1,0,1
0,724,5190,-1,0,1
0,725,680,-1,0,1
0,726,2420,1,0,1
0,727,450,1,0,1
0,728,750,-1,0,1
0,729,1120,1,0,1
0,730,2960,1,0,1
0,731,1800,-1,0,1
0,732,6620,1,0,1
0,733,3220,-1,0,1
0,734,2900,1,0,1
0,735,1130,-1,0,1
0,736,870,-1,0,1
0,737,11950,1,0,1
0,738,9220,1,0,1
0,739,600,-1,0,1
0,740,2630,1,0,1
0,741,3470,-1,0,1
0,742,7940,-1,0,1
0,743,11540,1,0,1
0,744,1780,-1,0,1
0,745,2070,1,0,1
0,746,3620,1,0,1
0,747,1700,1,0,1
0,748,1800,1,0,1
0,749,620,1,0,1
0,750,6030,-1,0,1
0,751,5450,1,0,1
0,752,1250,1,0,1
0,753,430,-1,0,1
0,754,2830,1,0,1
0,755,2290,-1,0,1
0,756,4620,-1,0,1
0,757,3190,1,0,1
0,758,1470,-1,0,1
0,759,4520,-1,0,1
0,760,780,-1,0,1
0,761,1270,1,0,1
0,762,2340,1,0,1
0,763,2100,1,0,1
0,764,3450,1,0,1
0,765,1030,-1,0,1
0,766,750,1,0,1
0,767,780,1,0,1
0,768,2950,1,0,1
0,769,1110,1,0,1
0,770,5770,1,0,1
0,771,2070,1,0,1
0,772,1160,1,0,1
0,773,600,-1,0,1
0,774,1110,1,0,1
0,775,1240,-1,0,1
0,776,710,1,0,1
0,777,3230,1,0,1
0,778,6080,1,0,1
0,779,910,-1,0,1
0,780,1700,-1,0,1
0,781,650,1,0,1
0,782,3710,-1,0,1
0,783,2180,-1,0,1
0,784,780,1,0,1
0,785,2060,1,0,1
0,786,14120,1,0,1
0,787,950,-1,0,1
0,788,4610,1,0,1
0,789,2870,-1,0,1
0,790,2340,1,0,1
0,791,2660,1,0,1
0,792,880,-1,0,1
0,793,870,1,0,1
0,794,1720,1,0,1
0,795,1710,-1,0,1
0,796,4800,1,0,1
0,797,670,1,0,1
0,798,4280,-1,0,1
0,799,2730,1,0,1
0,800,2520,1,0,1
0,801,750,-1,0,1
0,802,3050,1,0,1
0,803,1130,-1,0,1
0,804,3880,-1,0,1
0,805,7550,1,0,1
0,806,780,1,0,1
0,807,5690,1,0,1
0,808,4650,1,0,1
0,809,1020,-1,0,1
0,810,8280,1,0,1
0,811,1810,1,0,1
0,812,1220,1,0,1
0,813,5250,1,0,1
0,814,5110,1,0,1
0,815,880,-1,0,1
0,816,2780,1,0,1
0,817,810,-1,0,1
0,818,3140,1,0,1
0,819,4040,1,0,1
0,820,2460,1,0,1
0,821,840,1,0,1
0,822,2960,-1,0,1
0,823,5650,1,0,1
0,824,4170,1,0,1
0,825,2790,1,0,1
0,826,1080,1,0,1
0,827,3480,-1,0,1
0,828,3450,1,0,1
0,829,1680,1,0,1
0,830,740,1,0,1
0,831,5090,-1,0,1
0,832,3010,-1,0,1
0,833,2580,1,0,1
0,834,3130,1,0,1
0,835,5700,1,0,1
0,836,770,1,0,1
0,837,2750,-1,0,1
0,838,6290,1,0,1
0,839,2640,1,0,1
0,840,610,1,0,1
0,841,970,1,0,1
0,842,670,1,0,1
0,843,1510,1,0,1
0,844,2860,1,0,1
0,845,1360,1,0,1
0,846,680,1,0,1
0,847,670,-1,0,1
0,848,10640,1,0,1
0,849,2070,1,0,1
0,850,2570,1,0,1
0,851,3100,-1,0,1
0,852,2320,-1,0,1
0,853,490,1,0,1
0,854,1450,-1,0,1
0,855,700,1,0,1
0,856,4360,1,0,1
0,857,3500,1,0,1
0,858,1570,1,0,1
0,859,1600,1,0,1
0,860,1270,-1,0,1
0,861,1980,1,0,1
0,862,6270,1,0,1
0,863,5510,1,0,1
0,864,1480,1,0,1
0,865,3400,-1,0,1
0,866,930,1,0,1
0,867,2170,1,0,1
0,868,4200,1,0,1
0,869,1360,1,0,1
0,870,1040,-1,0,1
0,871,4340,1,0,1
0,872,2120,1,0,1
0,873,2610,1,0,1
0,874,12920,-1,0,1
0,875,1270,1,0,1
0,876,770,-1,0,1
0,877,480,1,0,1
0,878,880,1,0,1
0,879,1000,1,0,1
0,880,570,-1,0,1
0,881,2920,1,0,1
0,882,3330,1,0,1
0,883,3000,-1,0,1
0,884,3460,1,0,1
0,885,2930,1,0,1
0,886,2990,1,0,1
0,887,2070,1,0,1
0,888,2610,-1,0,1
0,889,2290,1,0,1
0,890,7920,1,0,1
0,891,2720,1,0,1
0,892,1770,-1,0,1
0,893,940,-1,0,1
0,894,990,1,0,1
0,895,950,1,0,1
0,896,2840,1,0,1
0,897,1020,1,0,1
0,898,3840,-1,0,1
0,899,2070,1,0,1
0,900,1310,1,0,2
0,901,1040,1,0,2
0,902,3660,-1,0,2
0,903,1440,1,0,2
0,904,780,-1,0,2
0,905,6700,1,0,2
0,906,690,1,0,2
0,907,970,1,0,2
0,908,3620,1,0,2
0,909,2390,1,0,2
0,910,620,-1,0,2
0,911,1300,1,0,2
0,912,990,1,0,2
0,913,1120,-1,0,2
0,914,2780,-1,0,2
0,915,3460,1,0,2
0,916,1820,1,0,2
0,917,820,1,0,2
0,918,4520,1,0,2
0,919,970,1,0,2
0,920,5470,1,0,2
0,921,2000,-1,0,2
0,922,940,1,0,2
0,923,1400,-1,0,2
0,924,4490,1,0,2
0,925,1380,1,0,2
0,926,2950,-1,0,2
0,927,1280,1,0,2
0,928,2180,1,0,2
0,929,4230,1,0,2
0,930,1430,1,0,2
0,931,690,-1,0,2
0,932,1710,1,0,2
0,933,2370,1,0,2
0,934,4270,1,0,2
0,935,4130,1,0,2
0,936,1660,1,0,2
0,937,3010,1,0,2
0,938,2300,1,0,2
0,939,620,-1,0,2
0,940,2780,1,0,2
0,941,1900,1,0,2
0,942,370,1,0,2
0,943,3430,1,0,2
0,944,3280,1,0,2
0,945,2010,1,0,2
0,946,1990,1,0,2
0,947,2680,1,0,2
0,948,3160,1,0,2
0,949,1250,1,0,2
0,950,1310,1,0,2
0,951,1110,-1,0,2
0,952,1530,1,0,2
0,953,3520,1,0,2
0,954,990,1,0,2
0,955,500,1,0,2
0,956,1910,1,0,2
0,957,2880,-1,0,2
0,958,1160,1,0,2
0,959,600,1,0,2
0,960,1280,1,0,2
0,961,3480,1,0,2
0,962,1980,-1,0,2
0,963,760,1,0,2
0,964,990,1,0,2
0,965,2840,-1,0,2
0,966,710,1,0,2
0,967,910,1,0,2
0,968,1510,1,0,2
0,969,1640,1,0,2
0,970,1670,1,0,2
0,971,2660,1,0,2
0,972,3220,1,0,2
0,973,680,1,0,2
0,974,910,1,0,2
0,975,800,1,0,2
0,976,4460,1,0,2
0,977,1720,1,0,2
0,978,1460,1,0,2
0,979,5730,1,0,2
0,980,1230,1,0,2
0,981,3140,-1,0,2
0,982,5730,1,0,2
0,983,440,1,0,2
0,984,1570,1,0,2
0,985,830,1,0,2
0,986,2040,1,0,2
0,987,1520,1,0,2
0,988,5140,1,0,2
0,989,2930,1,0,2
0,990,1450,1,0,2
0,991,5620,-1,0,2
0,992,2050,1,0,2
0,993,480,-1,0,2
0,994,2060,-1,0,2
0,995,1300,-1,0,2
0,996,2380,1,0,2
0,997,1110,1,0,2
0,998,1300,-1,0,2
0,999,6960,1,0,2
0,1000,6750,1,0,2
0,1001,4390,-1,0,2
0,1002,1110,1,0,2
0,1003,1530,1,0,2
0,1004,840,1,0,2
0,1005,1380,1,0,2
0,1006,980,-1,0,2
0,1007,1540,1,0,2
0,1008,1640,1,0,2
0,1009,3220,1,0,2
0,1010,5120,1,0,2
0,1011,2120,1,0,2
0,1012,570,1,0,2
0,1013,2530,1,0,2
0,1014,1310,1,0,2
0,1015,3760,-1,0,2
0,1016,1900,1,0,2
0,1017,4620,1,0,2
0,1018,1840,1,0,2
0,1019,1610,1,0,2
0,1020,1640,1,0,2
0,1021,2810,1,0,2
0,1022,1010,1,0,2
0,1023,1420,1,0,2
0,1024,610,-1,0,2
0,1025,4420,1,0,2
0,1026,590,-1,0,2
0,1027,750,-1,0,2
0,1028,410,1,0,2
0,1029,740,1,0,2
0,1030,2590,-1,0,2
0,1031,1940,1,0,2
0,1032,1940,1,0,2
0,1033,3290,1,0,2
0,1034,3510,1,0,2
0,1035,1590,1,0,2
0,1036,2200,1,0,2
0,1037,540,1,0,2
0,1038,5390,1,0,2
0,1039,1120,1,0,2
0,1040,2010,1,0,2
0,1041,810,1,0,2
0,1042,1010,1,0,2
0,1043,1350,1,0,2
0,1044,830,1,0,2
0,1045,1080,1,0,2
0,1046,580,-1,0,2
0,1047,1480,-1,0,2
0,1048,4630,1,0,2
0,1049,1340,-1,0,2
0,1050,2870,1,0,2
0,1051,1380,-1,0,2
0,1052,1570,1,0,2
0,1053,1350,1,0,2
0,1054,8420,1,0,2
0,1055,790,1,0,2
0,1056,1410,1,0,2
0,1057,2880,1,0,2
0,1058,1190,1,0,2
0,1059,2770,-1,0,2
0,1060,410,-1,0,2
0,1061,2390,1,0,2
0,1062,330,1,0,2
0,1063,660,1,0,2
0,1064,1160,-1,0,2
0,1065,1170,1,0,2
0,1066,6100,1,0,2
0,1067,1120,-1,0,2
0,1068,1650,1,0,2
0,1069,1890,1,0,2
0,1070,3080,1,0,2
0,1071,1920,-1,0,2
0,1072,4810,1,0,2
0,1073,1430,1,0,2
0,1074,3740,1,0,2
0,1075,3490,1,0,2
0,1076,1000,1,0,2
0,1077,2300,1,0,2
0,1078,1740,1,0,2
0,1079,910,1,0,2
0,1080,6280,1,0,2
0,1081,2350,-1,0,2
0,1082,2200,1,0,2
0,1083,6720,-1,0,2
0,1084,6770,1,0,2
0,1085,2780,-1,0,2
0,1086,3830,1,0,2
0,1087,1800,1,0,2
0,1088,790,1,0,2
0,1089,3330,-1,0,2
0,1090,2620,1,0,2
0,1091,4240,1,0,2
0,1092,4050,1,0,2
0,1093,3940,1,0,2
0,1094,2550,1,0,2
0,1095,1170,1,0,2
0,1096,1400,1,0,2
0,1097,2160,1,0,2
0,1098,3780,1,0,2
0,1099,2900,1,0,2
0,1100,2100,1,0,2
0,1101,1360,1,0,2
0,1102,1790,1,0,2
0,1103,980,1,0,2
0,1104,950,1,0,2
0,1105,3020,1,0,2
0,1106,1120,1,0,2
0,1107,12850,1,0,2
0,1108,3680,1,0,2
0,1109,3810,1,0,2
0,1110,6080,1,0,2
0,1111,1350,1,0,2
0,1112,2700,-1,0,2
0,1113,1750,1,0,2
0,1114,8050,-1,0,2
0,1115,5480,1,0,2
0,1116,1700,1,0,2
0,1117,3620,1,0,2
0,1118,460,1,0,2
0,1119,430,1,0,2
0,1120,930,-1,0,2
0,1121,2280,1,0,2
0,1122,4910,-1,0,2
0,1123,1520,1,0,2
0,1124,2790,1,0,2
0,1125,390,-1,0,2
0,1126,1750,1,0,2
0,1127,4950,1,0,2
0,1128,2580,1,0,2
0,1129,910,-1,0,2
0,1130,3790,1,0,2
0,1131,6640,-1,0,2
0,1132,770,1,0,2
0,1133,2790,1,0,2
0,1134,4080,1,0,2
0,1135,2010,1,0,2
0,1136,610,1,0,2
0,1137,330,1,0,2
0,1138,3320,1,0,2
0,1139,2130,1,0,2
0,1140,4110,1,0,2
0,1141,1660,1,0,2
0,1142,840,1,0,2
0,1143,1470,1,0,2
0,1144,750,1,0,2
0,1145,2200,1,0,2
0,1146,1740,1,0,2
0,1147,830,1,0,2
0,1148,4820,1,0,2
0,1149,650,-1,0,2
0,1150,1300,-1,0,2
0,1151,1560,1,0,2
0,1152,4060,1,0,2
0,1153,2320,-1,0,2
0,1154,2640,1,0,2
0,1155,790,1,0,2
0,1156,2280,1,0,2
0,1157,630,-1,0,2
0,1158,2860,1,0,2
0,1159,4750,1,0,2
0,1160,710,1,0,2
0,1161,1020,-1,0,2
0,1162,1310,1,0,2
0,1163,2430,-1,0,2
0,1164,2010,1,0,2
0,1165,3550,1,0,2
0,1166,1860,-1,0,2
0,1167,1180,1,0,2
0,1168,2510,1,0,2
0,1169,1550,-1,0,2
0,1170,560,1,0,2
0,1171,660,1,0,2
0,1172,2440,1,0,2
0,1173,4340,1,0,2
0,1174,1800,1,0,2
0,1175,2560,1,0,2
0,1176,1300,1,0,2
0,1177,2420,1,0,2
0,1178,4130,1,0,2
0,1179,4390,1,0,2
0,1180,2160,1,0,2
0,1181,2130,1,0,2
0,1182,2090,1,0,2
0,1183,6760,1,0,2
0,1184,3560,1,0,2
0,1185,1720,1,0,2
0,1186,1050,1,0,2
0,1187,6700,1,0,2
0,1188,2640,1,0,2
0,1189,1810,1,0,2
0,1190,5940,1,0,2
0,1191,1790,1,0,2
0,1192,930,1,0,2
0,1193,1450,1,0,2
0,1194,5120,-1,0,2
0,1195,3910,1,0,2
0,1196,4340,1,0,2
0,1197,630,-1,0,2
0,1198,3410,1,0,2
0,1199,2440,1,0,2
0,1200,1790,1,0,2
0,1201,2070,1,0,2
0,1202,1870,1,0,2
0,1203,2570,1,0,2
0,1204,1130,1,0,2
0,1205,1350,1,0,2
0,1206,510,1,0,2
0,1207,2360,1,0,2
0,1208,1780,1,0,2
0,1209,900,1,0,2
0,1210,940,-1,0,2
0,1211,5770,1,0,2
0,1212,7840,1,0,2
0,1213,1310,1,0,2
0,1214,2880,-1,0,2
0,1215,630,1,0,2
0,1216,1190,-1,0,2
0,1217,2420,1,0,2
0,1218,2080,1,0,2
0,1219,2130,1,0,2
0,1220,1760,1,0,2
0,1221,2620,1,0,2
0,1222,1420,1,0,2
0,1223,400,1,0,2
0,1224,1290,1,0,2
0,1225,9450,1,0,2
0,1226,1720,1,0,2
0,1227,670,1,0,2
0,1228,3170,1,0,2
0,1229,610,1,0,2
0,1230,1380,1,0,2
0,1231,600,1,0,2
0,1232,3340,-1,0,2
0,1233,1810,1,0,2
0,1234,9910,1,0,2
0,1235,5330,1,0,2
0,1236,4120,-1,0,2
0,1237,460,1,0,2
0,1238,1880,1,0,2
0,1239,730,1,0,2
0,1240,930,-1,0,2
0,1241,2810,1,0,2
0,1242,3160,-1,0,2
0,1243,1830,1,0,2
0,1244,1320,1,0,2
0,1245,330,1,0,2
0,1246,1690,1,0,2
0,1247,820,1,0,2
0,1248,1400,1,0,2
0,1249,1800,-1,0,2
0,1250,1590,1,0,2
0,1251,1000,1,0,2
0,1252,3250,1,0,2
0,1253,1180,1,0,2
0,1254,3110,1,0,2
0,1255,880,1,0,2
0,1256,2060,1,0,2
0,1257,860,1,0,2
0,1258,1300,1,0,2
0,1259,520,1,0,2
0,1260,2050,-1,0,2
0,1261,1070,1,0,2
0,1262,6660,1,0,2
0,1263,1530,1,0,2
0,1264,2200,1,0,2
0,1265,4820,-1,0,2
0,1266,7520,1,0,2
0,1267,2270,-1,0,2
0,1268,840,1,0,2
0,1269,1520,1,0,2
0,1270,930,1,0,2
0,1271,5620,1,0,2
0,1272,1790,1,0,2
0,1273,5530,1,0,2
0,1274,1780,1,0,2
0,1275,1660,1,0,2
0,1276,2500,1,0,2
0,1277,3040,1,0,2
0,1278,8590,1,0,2
0,1279,1200,-1,0,2
0,1280,940,1,0,2
0,1281,1900,1,0,2
0,1282,960,1,0,2
0,1283,2730,1,0,2
0,1284,860,-1,0,2
0,1285,920,1,0,2
0,1286,2100,1,0,2
0,1287,2510,1,0,2
0,1288,1580,1,0,2
0,1289,2410,1,0,2
0,1290,3390,-1,0,2
0,1291,610,1,0,2
0,1292,5660,1,0,2
0,1293,1950,1,0,2
0,1294,2130,1,0,2
0,1295,450,1,0,2
0,1296,760,1,0,2
0,1297,4170,1,0,2
0,1298,5890,1,0,2
0,1299,2410,1,0,2
0,1300,290,-1,0,2
0,1301,910,1,0,2
0,1302,1380,1,0,2
0,1303,420,-1,0,2
0,1304,2340,1,0,2
0,1305,1920,1,0,2
0,1306,1700,1,0,2
0,1307,2020,1,0,2
0,1308,1050,1,0,2
0,1309,2680,1,0,2
0,1310,860,1,0,2
0,1311,6230,1,0,2
0,1312,1470,1,0,2
0,1313,1230,1,0,2
0,1314,6750,1,0,2
0,1315,680,1,0,2
0,1316,800,1,0,2
0,1317,1650,1,0,2
0,1318,2130,1,0,2
0,1319,1650,-1,0,2
0,1320,1430,1,0,2
0,1321,2340,1,0,2
0,1322,2120,1,0,2
0,1323,3150,-1,0,2
0,1324,15520,1,0,2
0,1325,2060,1,0,2
0,1326,1630,1,0,2
0,1327,2260,1,0,2
0,1328,2070,1,0,2
0,1329,3160,1,0,2
0,1330,2380,1,0,2
0,1331,710,1,0,2
0,1332,1960,1,0,2
0,1333,1620,1,0,2
0,1334,2700,1,0,2
0,1335,1760,1,0,2
0,1336,1120,1,0,2
0,1337,1210,-1,0,2
0,1338,3900,1,0,2
0,1339,780,1,0,2
0,1340,500,1,0,2
0,1341,800,1,0,2
0,1342,1330,1,0,2
0,1343,930,1,0,2
0,1344,1870,1,0,2
0,1345,2120,1,0,2
0,1346,4740,1,0,2
0,1347,920,1,0,2
0,1348,3840,1,0,2
0,1349,2100,1,0,2
0,1350,2360,1,0,2
0,1351,750,1,0,2
0,1352,3390,1,0,2
0,1353,2530,1,0,2
0,1354,2040,1,0,2
0,1355,4010,1,0,2
0,1356,2200,1,0,2
0,1357,3420,1,0,2
0,1358,4730,1,0,2
0,1359,1830,1,0,2
0,1360,2090,-1,0,2
0,1361,550,1,0,2
0,1362,1850,1,0,2
0,1363,800,-1,0,2
0,1364,1690,1,0,2
0,1365,690,-1,0,2
0,1366,2930,1,0,2
0,1367,2520,1,0,2
0,1368,2790,1,0,2
0,1369,1640,1,0,2
0,1370,6450,1,0,2
0,1371,3800,1,0,2
0,1372,3790,1,0,2
0,1373,950,1,0,2
0,1374,360,1,0,2
0,1375,390,1,0,2
0,1376,2150,1,0,2
0,1377,540,1,0,2
0,1378,2960,1,0,2
0,1379,3780,1,0,2
0,1380,1350,1,0,2
0,1381,1260,1,0,2
0,1382,2430,1,0,2
0,1383,2930,1,0,2
0,1384,2760,1,0,2
0,1385,1920,1,0,2
0,1386,3790,1,0,2
0,1387,800,1,0,2
0,1388,1410,1,0,2
0,1389,1790,1,0,2
0,1390,1990,1,0,2
0,1391,1740,1,0,2
0,1392,2990,1,0,2
0,1393,2340,1,0,2
0,1394,3270,1,0,2
0,1395,2030,1,0,2
0,1396,1420,-1,0,2
0,1397,3440,1,0,2
0,1398,2160,1,0,2
0,1399,1550,1,0,2
0,1400,1440,1,0,2
0,1401,3750,-1,0,2
0,1402,1340,1,0,2
0,1403,720,1,0,2
0,1404,1060,1,0,2
0,1405,1650,1,0,2
0,1406,3930,-1,0,2
0,1407,1030,1,0,2
0,1408,1700,1,0,2
0,1409,4770,1,0,2
0,1410,2470,1,0,2
0,1411,620,1,0,2
0,1412,1390,1,0,2
0,1413,2270,1,0,2
0,1414,900,1,0,2
0,1415,980,1,0,2
0,1416,4140,1,0,2
0,1417,1610,1,0,2
0,1418,1430,1,0,2
0,1419,1620,1,0,2
0,1420,830,1,0,2
0,1421,6470,1,0,2
0,1422,1720,-1,0,2
0,1423,1450,1,0,2
0,1424,7260,1,0,2
0,1425,2030,1,0,2
0,1426,1830,1,0,2
0,1427,2960,1,0,2
0,1428,6740,1,0,2
0,1429,1700,1,0,2
0,1430,3440,1,0,2
0,1431,1960,1,0,2
0,1432,560,1,0,2
0,1433,1250,1,0,2
0,1434,830,1,0,2
0,1435,3200,1,0,2
0,1436,2150,1,0,2
0,1437,710,1,0,2
0,1438,3500,-1,0,2
0,1439,1070,-1,0,2
0,1440,1370,1,0,2
0,1441,4730,-1,0,2
0,1442,3990,1,0,2
0,1443,9290,1,0,2
0,1444,4170,1,0,2
0,1445,3540,1,0,2
0,1446,1860,1,0,2
0,1447,1230,1,0,2
0,1448,3390,1,0,2
0,1449,4740,1,0,2
0,1450,1370,-1,0,2
0,1451,3310,1,0,2
0,1452,2700,1,0,2
0,1453,900,-1,0,2
0,1454,1970,1,0,2
0,1455,2920,1,0,2
0,1456,500,1,0,2
0,1457,870,1,0,2
0,1458,750,1,0,2
0,1459,1770,1,0,2
0,1460,600,-1,0,2
0,1461,820,1,0,2
0,1462,490,1,0,2
0,1463,1520,1,0,2
0,1464,3210,1,0,2
0,1465,3310,1,0,2
0,1466,580,1,0,2
0,1467,3030,1,0,2
0,1468,420,1,0,2
0,1469,2430,1,0,2
0,1470,1830,1,0,2
0,1471,1880,1,0,2
0,1472,2220,1,0,2
0,1473,3360,1,0,2
0,1474,9390,-1,0,2
0,1475,1800,1,0,2
0,1476,4340,1,0,2
0,1477,3190,1,0,2
0,1478,1760,1,0,2
0,1479,5620,1,0,2
0,1480,5710,1,0,2
0,1481,5000,1,0,2
0,1482,2610,-1,0,2
0,1483,5570,-1,0,2
0,1484,1280,1,0,2
0,1485,2480,1,0,2
0,1486,1250,1,0,2
0,1487,1950,1,0,2
0,1488,3120,-1,0,2
0,1489,650,1,0,2
0,1490,2540,1,0,2
0,1491,620,1,0,2
0,1492,7370,1,0,2
0,1493,2230,1,0,2
0,1494,2200,1,0,2
0,1495,2000,1,0,2
0,1496,4460,-1,0,2
0,1497,4130,-1,0,2
0,1498,1940,1,0,2
0,1499,4150,1,0,2
0,1500,1350,1,0,3
0,1501,2270,1,0,3
0,1502,6560,-1,0,3
0,1503,1760,1,0,3
0,1504,1680,1,0,3
0,1505,2370,1,0,3
0,1506,1620,1,0,3
0,1507,2150,1,0,3
0,1508,1290,1,0,3
0,1509,2950,1,0,3
0,1510,1770,1,0,3
0,1511,880,1,0,3
0,1512,1010,-1,0,3
0,1513,4740,1,0,3
0,1514,1630,1,0,3
0,1515,1700,1,0,3
0,1516,2180,1,0,3
0,1517,350,1,0,3
0,1518,5770,1,0,3
0,1519,890,-1,0,3
0,1520,1810,1,0,3
0,1521,3390,1,0,3
0,1522,5070,1,0,3
0,1523,1320,1,0,3
0,1524,2330,1,0,3
0,1525,1200,1,0,3
0,1526,1950,1,0,3
0,1527,2380,1,0,3
0,1528,1740,1,0,3
0,1529,1370,1,0,3
0,1530,5810,1,0,3
0,1531,1870,1,0,3
0,1532,740,-1,0,3
0,1533,1940,1,0,3
0,1534,5350,-1,0,3
0,1535,3930,1,0,3
0,1536,1930,1,0,3
0,1537,1630,1,0,3
0,1538,1450,1,0,3
0,1539,1130,1,0,3
0,1540,3530,1,0,3
0,1541,1060,-1,0,3
0,1542,870,1,0,3
0,1543,1150,1,0,3
0,1544,1210,1,0,3
0,1545,1170,1,0,3
0,1546,1080,1,0,3
0,1547,1090,1,0,3
0,1548,1600,1,0,3
0,1549,2260,1,0,3
0,1550,1370,1,0,3
0,1551,2140,1,0,3
0,1552,990,1,0,3
0,1553,1940,1,0,3
0,1554,5680,1,0,3
0,1555,3430,1,0,3
0,1556,1550,1,0,3
0,1557,1930,1,0,3
0,1558,1830,1,0,3
0,1559,510,1,0,3
0,1560,780,-1,0,3
0,1561,2390,1,0,3
0,1562,320,-1,0,3
0,1563,2410,1,0,3
0,1564,3110,1,0,3
0,1565,1350,-1,0,3
0,1566,3060,-1,0,3
0,1567,1710,1,0,3
0,1568,7300,1,0,3
0,1569,1160,-1,0,3
0,1570,1480,1,0,3
0,1571,2330,1,0,3
0,1572,2930,-1,0,3
0,1573,1300,1,0,3
0,1574,1670,1,0,3
0,1575,970,-1,0,3
0,1576,870,1,0,3
0,1577,2770,1,0,3
0,1578,1610,1,0,3
0,1579,960,-1,0,3
0,1580,1070,1,0,3
0,1581,1120,1,0,3
0,1582,2550,1,0,3
0,1583,1300,1,0,3
0,1584,1260,1,0,3
0,1585,1260,-1,0,3
0,1586,2050,1,0,3
0,1587,860,1,0,3
0,1588,3400,1,0,3
0,1589,1330,1,0,3
0,1590,5060,1,0,3
0,1591,2410,1,0,3
0,1592,1310,1,0,3
0,1593,1250,-1,0,3
0,1594,810,-1,0,3
0,1595,1110,1,0,3
0,1596,1280,1,0,3
0,1597,1860,1,0,3
0,1598,1610,1,0,3
0,1599,2440,1,0,3
0,1600,2390,1,0,3
0,1601,4750,1,0,3
0,1602,2250,1,0,3
0,1603,1260,1,0,3
0,1604,1040,1,0,3
0,1605,5180,1,0,3
0,1606,2120,1,0,3
0,1607,1400,1,0,3
0,1608,800,-1,0,3
0,1609,830,1,0,3
0,1610,1130,1,0,3
0,1611,4060,1,0,3
0,1612,6120,-1,0,3
0,1613,2600,1,0,3
0,1614,1730,1,0,3
0,1615,1240,1,0,3
0,1616,2180,1,0,3
0,1617,5070,1,0,3
0,1618,1410,1,0,3
0,1619,2070,1,0,3
0,1620,2090,1,0,3
0,1621,2150,1,0,3
0,1622,2940,-1,0,3
0,1623,1720,1,0,3
0,1624,690,1,0,3
0,1625,1990,1,0,3
0,1626,1960,1,0,3
0,1627,1270,1,0,3
0,1628,1480,1,0,3
0,1629,600,1,0,3
0,1630,590,-1,0,3
0,1631,1020,1,0,3
0,1632,700,-1,0,3
0,1633,3060,1,0,3
0,1634,1410,1,0,3
0,1635,1360,1,0,3
0,1636,3290,-1,0,3
0,1637,500,1,0,3
0,1638,440,1,0,3
0,1639,1280,1,0,3
0,1640,530,1,0,3
0,1641,3670,1,0,3
0,1642,3200,1,0,3
0,1643,1460,1,0,3
0,1644,580,1,0,3
0,1645,2190,-1,0,3
0,1646,510,1,0,3
0,1647,2190,1,0,3
0,1648,650,1,0,3
0,1649,4530,1,0,3
0,1650,1870,1,0,3
0,1651,1890,1,0,3
0,1652,6710,1,0,3
0,1653,5870,1,0,3
0,1654,1170,1,0,3
0,1655,1040,1,0,3
0,1656,3300,1,0,3
0,1657,610,1,0,3
0,1658,1430,1,0,3
0,1659,1390,1,0,3
0,1660,2520,1,0,3
0,1661,1310,1,0,3
0,1662,1630,1,0,3
0,1663,1580,1,0,3
0,1664,820,1,0,3
0,1665,3090,1,0,3
0,1666,3420,1,0,3
0,1667,1970,1,0,3
0,1668,1710,1,0,3
0,1669,3950,1,0,3
0,1670,1960,1,0,3
0,1671,1730,1,0,3
0,1672,4070,1,0,3
0,1673,1290,1,0,3
0,1674,1680,1,0,3
0,1675,760,1,0,3
0,1676,2290,1,0,3
0,1677,3880,1,0,3
0,1678,4260,1,0,3
0,1679,1650,1,0,3
0,1680,2540,1,0,3
0,1681,1450,1,0,3
0,1682,2910,1,0,3
0,1683,1000,-1,0,3
0,1684,1860,1,0,3
0,1685,2760,1,0,3
0,1686,4370,1,0,3
0,1687,1150,1,0,3
0,1688,1810,1,0,3
0,1689,710,1,0,3
0,1690,5670,1,0,3
0,1691,3320,1,0,3
0,1692,1090,1,0,3
0,1693,4660,1,0,3
0,1694,1970,1,0,3
0,1695,2540,1,0,3
0,1696,3220,1,0,3
0,1697,3160,1,0,3
0,1698,1400,1,0,3
0,1699,1710,1,0,3
0,1700,1400,1,0,3
0,1701,590,1,0,3
0,1702,1760,1,0,3
0,1703,1520,1,0,3
0,1704,940,1,0,3
0,1705,4100,1,0,3
0,1706,5060,1,0,3
0,1707,2120,1,0,3
0,1708,990,-1,0,3
0,1709,3080,1,0,3
0,1710,1490,-1,0,3
0,1711,1230,1,0,3
0,1712,3630,1,0,3
0,1713,980,1,0,3
0,1714,610,1,0,3
0,1715,1250,-1,0,3
0,1716,3750,1,0,3
0,1717,1360,1,0,3
0,1718,1610,1,0,3
0,1719,2700,1,0,3
0,1720,3880,1,0,3
0,1721,1110,1,0,3
0,1722,1040,1,0,3
0,1723,1810,1,0,3
0,1724,2110,1,0,3
0,1725,1940,1,0,3
0,1726,2640,1,0,3
0,1727,3830,1,0,3
0,1728,1480,1,0,3
0,1729,4100,1,0,3
0,1730,1530,1,0,3
0,1731,1010,1,0,3
0,1732,590,1,0,3
0,1733,2360,1,0,3
0,1734,3500,1,0,3
0,1735,1220,1,0,3
0,1736,1000,1,0,3
0,1737,1660,1,0,3
0,1738,3170,1,0,3
0,1739,2800,1,0,3
0,1740,2830,1,0,3
0,1741,1950,1,0,3
0,1742,760,-1,0,3
0,1743,1860,1,0,3
0,1744,3600,-1,0,3
0,1745,780,1,0,3
0,1746,790,1,0,3
0,1747,5340,1,0,3
0,1748,550,-1,0,3
0,1749,1800,1,0,3
0,1750,1780,1,0,3
0,1751,3510,1,0,3
0,1752,890,1,0,3
0,1753,1720,1,0,3
0,1754,1350,1,0,3
0,1755,1560,1,0,3
0,1756,1370,1,0,3
0,1757,720,1,0,3
0,1758,710,1,0,3
0,1759,2560,1,0,3
0,1760,2530,1,0,3
0,1761,1650,1,0,3
0,1762,1450,1,0,3
0,1763,7320,1,0,3
0,1764,1540,1,0,3
0,1765,3360,1,0,3
0,1766,540,-1,0,3
0,1767,1710,1,0,3
0,1768,2740,1,0,3
0,1769,1360,1,0,3
0,1770,990,-1,0,3
0,1771,2370,1,0,3
0,1772,1040,1,0,3
0,1773,1330,1,0,3
0,1774,1140,1,0,3
0,1775,1270,1,0,3
0,1776,1570,1,0,3
0,1777,680,1,0,3
0,1778,560,-1,0,3
0,1779,4740,1,0,3
0,1780,3480,-1,0,3
0,1781,1110,1,0,3
0,1782,1370,1,0,3
0,1783,890,-1,0,3
0,1784,570,1,0,3
0,1785,930,1,0,3
0,1786,1150,1,0,3
0,1787,1040,1,0,3
0,1788,2700,1,0,3
0,1789,1650,1,0,3
0,1790,1650,-1,0,3
0,1791,3950,1,0,3
0,1792,1870,-1,0,3
0,1793,2660,1,0,3
0,1794,1190,1,0,3
0,1795,1800,1,0,3
0,1796,4000,1,0,3
0,1797,2050,1,0,3
0,1798,1280,1,0,3
0,1799,1630,1,0,3
0,1800,890,-1,1,0
0,1801,3310,-1,1,0
0,1802,7020,1,1,0
0,1803,1340,1,1,0
0,1804,5470,-1,1,0
0,1805,3240,-1,1,0
0,1806,1650,-1,1,0
0,1807,4010,-1,1,0
0,1808,3720,-1,1,0
0,1809,1000,1,1,0
0,1810,1370,-1,1,0
0,1811,1160,-1,1,0
0,1812,4290,-1,1,0
0,1813,1430,1,1,0
0,1814,6330,-1,1,0
0,1815,3510,-1,1,0
0,1816,4470,-1,1,0
0,1817,1560,-1,1,0
0,1818,3790,-1,1,0
0,1819,4280,-1,1,0
0,1820,2790,1,1,0
0,1821,2400,1,1,0
0,1822,5220,-1,1,0
0,1823,560,-1,1,0
0,1824,2480,1,1,0
0,1825,1870,-1,1,0
0,1826,2020,1,1,0
0,1827,2060,-1,1,0
0,1828,6990,-1,1,0
0,1829,710,-1,1,0
0,1830,430,-1,1,0
0,1831,2720,-1,1,0
0,1832,2700,-1,1,0
0,1833,1160,-1,1,0
0,1834,3280,-1,1,0
0,1835,660,-1,1,0
0,1836,4350,-1,1,0
0,1837,6440,-1,1,0
0,1838,1530,1,1,0
0,1839,1860,1,1,0
0,1840,1160,-1,1,0
0,1841,490,1,1,0
0,1842,700,-1,1,0
0,1843,2950,1,1,0
0,1844,3940,1,1,0
0,1845,420,-1,1,0
0,1846,4080,-1,1,0
0,1847,6380,-1,1,0
0,1848,460,-1,1,0
0,1849,6070,-1,1,0
0,1850,870,-1,1,0
0,1851,2020,-1,1,0
0,1852,770,1,1,0
0,1853,6350,-1,1,0
0,1854,3640,-1,1,0
0,1855,1950,1,1,0
0,1856,2640,-1,1,0
0,1857,8480,-1,1,0
0,1858,1290,1,1,0
0,1859,1000,-1,1,0
0,1860,1800,-1,1,0
0,1861,9590,-1,1,0
0,1862,810,-1,1,0
0,1863,1400,-1,1,0
0,1864,800,-1,1,0
0,1865,2440,-1,1,0
0,1866,4740,-1,1,0
0,1867,2020,-1,1,0
0,1868,2140,1,1,0
0,1869,600,-1,1,0
0,1870,3060,-1,1,0
0,1871,2060,1,1,0
0,1872,1890,-1,1,0
0,1873,1980,-1,1,0
0,1874,1180,-1,1,0
0,1875,310,-1,1,0
0,1876,1500,-1,1,0
0,1877,600,1,1,0
0,1878,1030,1,1,0
0,1879,1630,-1,1,0
0,1880,1910,1,1,0
0,1881,900,1,1,0
0,1882,1580,1,1,0
0,1883,880,1,1,0
0,1884,4370,1,1,0
0,1885,2520,-1,1,0
0,1886,2810,1,1,0
0,1887,1210,1,1,0
0,1888,3140,1,1,0
0,1889,830,-1,1,0
0,1890,570,-1,1,0
0,1891,1240,-1,1,0
0,1892,8480,-1,1,0
0,1893,2960,-1,1,0
0,1894,2070,-1,1,0
0,1895,1430,-1,1,0
0,1896,800,-1,1,0
0,1897,1570,-1,1,0
0,1898,2870,-1,1,0
0,1899,2780,-1,1,0
0,1900,1000,-1,1,0
0,1901,1330,-1,1,0
0,1902,2260,-1,1,0
0,1903,2420,-1,1,0
0,1904,710,1,1,0
0,1905,2040,-1,1,0
0,1906,3310,1,1,0
0,1907,1420,-1,1,0
0,1908,4140,1,1,0
0,1909,300,-1,1,0
0,1910,4220,-1,1,0
0,1911,710,1,1,0
0,1912,1320,1,1,0
0,1913,4040,-1,1,0
0,1914,5750,-1,1,0
0,1915,3310,-1,1,0
0,1916,2330,1,1,0
0,1917,3590,1,1,0
0,1918,610,-1,1,0
0,1919,1150,1,1,0
0,1920,3200,-1,1,0
0,1921,970,1,1,0
0,1922,1140,-1,1,0
0,1923,310,-1,1,0
0,1924,2070,-1,1,0
0,1925,1570,-1,1,0
0,1926,2010,-1,1,0
0,1927,1470,-1,1,0
0,1928,1750,1,1,0
0,1929,3190,-1,1,0
0,1930,2080,1,1,0
0,1931,6570,1,1,0
0,1932,1470,-1,1,0
0,1933,1830,-1,1,0
0,1934,3300,-1,1,0
0,1935,2380,-1,1,0
0,1936,4010,1,1,0
0,1937,1690,1,1,0
0,1938,1290,1,1,0
0,1939,2590,-1,1,0
0,1940,3520,1,1,0
0,1941,2510,1,1,0
0,1942,1860,1,1,0
0,1943,5620,-1,1,0
0,1944,510,-1,1,0
0,1945,790,1,1,0
0,1946,1560,-1,1,0
0,1947,5460,-1,1,0
0,1948,2150,1,1,0
0,1949,1040,1,1,0
0,1950,3590,-1,1,0
0,1951,4080,-1,1,0
0,1952,1290,-1,1,0
0,1953,3350,-1,1,0
0,1954,2740,1,1,0
0,1955,6280,-1,1,0
0,1956,3630,-1,1,0
0,1957,1090,-1,1,0
0,1958,3710,-1,1,0
0,1959,1210,-1,1,0
0,1960,1790,-1,1,0
0,1961,4620,-1,1,0
0,1962,4170,-1,1,0
0,1963,2410,-1,1,0
0,1964,3670,-1,1,0
0,1965,1330,1,1,0
0,1966,670,-1,1,0
0,1967,1690,1,1,0
0,1968,5600,1,1,0
0,1969,9410,1,1,0
0,1970,7780,1,1,0
0,1971,300,-1,1,0
0,1972,3840,-1,1,0
0,1973,3060,1,1,0
0,1974,6580,1,1,0
0,1975,5250,1,1,0
0,1976,6840,-1,1,0
0,1977,2020,-1,1,0
0,1978,7020,-1,1,0
0,1979,1460,-1,1,0
0,1980,4700,-1,1,0
0,1981,660,1,1,0
0,1982,1140,-1,1,0
0,1983,7210,-1,1,0
0,1984,1600,-1,1,0
0,1985,2470,-1,1,0
0,1986,890,-1,1,0
0,1987,1310,-1,1,0
0,1988,480,-1,1,0
0,1989,1790,-1,1,0
0,1990,1270,-1,1,0
0,1991,1450,-1,1,0
0,1992,4550,-1,1,0
0,1993,3060,-1,1,0
0,1994,1790,1,1,0
0,1995,1360,-1,1,0
0,1996,1820,-1,1,0
0,1997,2130,-1,1,0
0,1998,1250,1,1,0
0,1999,5370,1,1,0
0,2000,850,-1,1,0
0,2001,1460,1,1,0
0,2002,4370,-1,1,0
0,2003,1510,-1,1,0
0,2004,1990,-1,1,0
0,2005,2180,-1,1,0
0,2006,3010,-1,1,0
0,2007,1610,-1,1,0
0,2008,3630,1,1,0
0,2009,4520,1,1,0
0,2010,1490,-1,1,0
0,2011,4300,-1,1,0
0,2012,1750,-1,1,0
0,2013,2890,-1,1,0
0,2014,1500,-1,1,0
0,2015,980,1,1,0
0,2016,2030,1,1,0
0,2017,1000,-1,1,0
0,2018,1700,-1,1,0
0,2019,5930,1,1,0
0,2020,3770,-1,1,0
0,2021,5660,-1,1,0
0,2022,970,-1,1,0
0,2023,1150,1,1,0
0,2024,270,1,1,0
0,2025,880,-1,1,0
0,2026,1030,-1,1,0
0,2027,480,-1,1,0
0,2028,1720,-1,1,0
0,2029,830,-1,1,0
0,2030,940,-1,1,0
0,2031,2950,-1,1,0
0,2032,4470,-1,1,0
0,2033,720,-1,1,0
0,2034,1060,-1,1,0
0,2035,3520,1,1,0
0,2036,1690,1,1,0
0,2037,730,-1,1,0
0,2038,1010,1,1,0
0,2039,1520,-1,1,0
0,2040,8110,1,1,0
0,2041,1120,1,1,0
0,2042,1850,-1,1,0
0,2043,5520,1,1,0
0,2044,1600,1,1,0
0,2045,2120,-1,1,0
0,2046,970,-1,1,0
0,2047,1770,-1,1,0
0,2048,1530,1,1,0
0,2049,1880,-1,1,0
0,2050,4010,1,1,0
0,2051,770,-1,1,0
0,2052,450,1,1,0
0,2053,2820,-1,1,0
0,2054,390,1,1,0
0,2055,6230,-1,1,0
0,2056,4390,1,1,0
0,2057,1970,-1,1,0
0,2058,2620,-1,1,0
0,2059,2520,1,1,0
0,2060,1530,-1,1,0
0,2061,600,-1,1,0
0,2062,3890,-1,1,0
0,2063,1460,1,1,0
0,2064,700,1,1,0
0,2065,2810,-1,1,0
0,2066,1650,-1,1,0
0,2067,520,1,1,0
0,2068,1410,1,1,0
0,2069,1930,1,1,0
0,2070,1570,-1,1,0
0,2071,2300,-1,1,0
0,2072,5790,-1,1,0
0,2073,860,-1,1,0
0,2074,1720,1,1,0
0,2075,3530,-1,1,0
0,2076,1870,-1,1,0
0,2077,3150,-1,1,0
0,2078,2350,1,1,0
0,2079,4640,-1,1,0
0,2080,1380,1,1,0
0,2081,1740,-1,1,0
0,2082,2660,1,1,0
0,2083,2290,-1,1,0
0,2084,5530,-1,1,0
0,2085,2600,1,1,0
0,2086,410,1,1,0
0,2087,1050,-1,1,0
0,2088,2360,-1,1,0
0,2089,4760,-1,1,0
0,2090,730,-1,1,0
0,2091,1670,1,1,0
0,2092,3490,-1,1,0
0,2093,6090,-1,1,0
0,2094,1990,-1,1,0
0,2095,640,-1,1,0
0,2096,3140,-1,1,0
0,2097,710,-1,1,0
0,2098,1540,-1,1,0
0,2099,1680,-1,1,0
0,2100,840,-1,1,0
0,2101,1130,1,1,0
0,2102,360,1,1,0
0,2103,2480,-1,1,0
0,2104,1600,-1,1,0
0,2105,2910,1,1,0
0,2106,550,-1,1,0
0,2107,2960,-1,1,0
0,2108,900,1,1,0
0,2109,840,1,1,0
0,2110,1220,1,1,0
0,2111,2450,-1,1,0
0,2112,2140,1,1,0
0,2113,5060,-1,1,0
0,2114,530,-1,1,0
0,2115,2770,-1,1,0
0,2116,540,-1,1,0
0,2117,780,-1,1,0
0,2118,1780,1,1,0
0,2119,1500,-1,1,0
0,2120,1660,-1,1,0
0,2121,4320,-1,1,0
0,2122,1060,-1,1,0
0,2123,1420,1,1,0
0,2124,3810,-1,1,0
0,2125,350,1,1,0
0,2126,1420,-1,1,0
0,2127,9350,-1,1,0
0,2128,14690,1,1,0
0,2129,1460,-1,1,0
0,2130,370,-1,1,0
0,2131,2840,1,1,0
0,2132,3990,1,1,0
0,2133,6040,-1,1,0
0,2134,1280,-1,1,0
0,2135,1420,-1,1,0
0,2136,3440,1,1,0
0,2137,1080,-1,1,0
0,2138,4690,-1,1,0
0,2139,2060,-1,1,0
0,2140,1710,-1,1,0
0,2141,4350,-1,1,0
0,2142,480,-1,1,0
0,2143,1410,1,1,0
0,2144,3910,-1,1,0
0,2145,820,-1,1,0
0,2146,970,-1,1,0
0,2147,910,-1,1,0
0,2148,1740,-1,1,0
0,2149,810,-1,1,0
0,2150,3530,-1,1,0
0,2151,3110,-1,1,0
0,2152,4290,-1,1,0
0,2153,2530,-1,1,0
0,2154,590,-1,1,0
0,2155,3290,-1,1,0
0,2156,5580,-1,1,0
0,2157,3360,1,1,0
0,2158,2130,-1,1,0
0,2159,840,-1,1,0
0,2160,1590,-1,1,0
0,2161,6380,-1,1,0
0,2162,700,-1,1,0
0,2163,3820,1,1,0
0,2164,4500,1,1,0
0,2165,1230,1,1,0
0,2166,760,-1,1,0
0,2167,3370,1,1,0
0,2168,6370,-1,1,0
0,2169,1010,1,1,0
0,2170,520,1,1,0
0,2171,2630,-1,1,0
0,2172,1820,1,1,0
0,2173,2390,-1,1,0
0,2174,8190,-1,1,0
0,2175,5960,1,1,0
0,2176,5810,-1,1,0
0,2177,470,1,1,0
0,2178,2040,-1,1,0
0,2179,3870,-1,1,0
0,2180,7110,-1,1,0
0,2181,4470,-1,1,0
0,2182,3440,-1,1,0
0,2183,5470,-1,1,0
0,2184,1110,1,1,0
0,2185,4330,-1,1,0
0,2186,1470,-1,1,0
0,2187,1260,-1,1,0
0,2188,2190,1,1,0
0,2189,3880,-1,1,0
0,2190,1670,-1,1,0
0,2191,5530,-1,1,0
0,2192,1820,1,1,0
0,2193,2600,-1,1,0
0,2194,2110,1,1,0
0,2195,4390,1,1,0
0,2196,5900,1,1,0
0,2197,980,-1,1,0
0,2198,910,-1,1,0
0,2199,570,-1,1,0
0,2200,9870,-1,1,0
0,2201,3400,1,1,0
0,2202,810,-1,1,0
0,2203,1770,-1,1,0
0,2204,1690,1,1,0
0,2205,3250,1,1,0
0,2206,780,-1,1,0
0,2207,890,-1,1,0
0,2208,5210,-1,1,0
0,2209,2870,-1,1,0
0,2210,6300,-1,1,0
0,2211,680,-1,1,0
0,2212,920,-1,1,0
0,2213,3180,-1,1,0
0,2214,730,-1,1,0
0,2215,3270,1,1,0
0,2216,1430,-1,1,0
0,2217,1940,-1,1,0
0,2218,4720,1,1,0
0,2219,2370,-1,1,0
0,2220,2490,-1,1,0
0,2221,4220,-1,1,0
0,2222,1280,1,1,0
0,2223,2560,-1,1,0
0,2224,2230,-1,1,0
0,2225,990,-1,1,0
0,2226,2830,-1,1,0
0,2227,1920,-1,1,0
0,2228,11140,-1,1,0
0,2229,7360,-1,1,0
0,2230,4920,1,1,0
0,2231,2190,-1,1,0
0,2232,2130,-1,1,0
0,2233,2530,-1,1,0
0,2234,1010,1,1,0
0,2235,770,1,1,0
0,2236,1400,1,1,0
0,2237,4290,-1,1,0
0,2238,2530,-1,1,0
0,2239,4080,1,1,0
0,2240,2840,-1,1,0
0,2241,3880,1,1,0
0,2242,4940,1,1,0
0,2243,2990,-1,1,0
0,2244,1440,-1,1,0
0,2245,1220,-1,1,0
0,2246,6130,-1,1,0
0,2247,950,-1,1,0
0,2248,5510,-1,1,0
0,2249,690,-1,1,0
0,2250,2400,-1,1,0
0,2251,2220,-1,1,0
0,2252,3070,-1,1,0
0,2253,6220,-1,1,0
0,2254,6560,1,1,0
0,2255,1740,-1,1,0
0,2256,1060,-1,1,0
0,2257,3820,-1,1,0
0,2258,1340,1,1,0
0,2259,2960,-1,1,0
0,2260,2900,-1,1,0
0,2261,4470,-1,1,0
0,2262,1250,-1,1,0
0,2263,1980,1,1,0
0,2264,8890,-1,1,0
0,2265,2080,-1,1,0
0,2266,920,-1,1,0
0,2267,880,-1,1,0
0,2268,5760,-1,1,0
0,2269,2050,1,1,0
0,2270,4950,-1,1,0
0,2271,4120,-1,1,0
0,2272,1930,1,1,0
0,2273,950,-1,1,0
0,2274,5880,1,1,0
0,2275,4760,-1,1,0
0,2276,2120,-1,1,0
0,2277,2760,1,1,0
0,2278,5470,1,1,0
0,2279,3340,1,1,0
0,2280,7340,-1,1,0
0,2281,3160,-1,1,0
0,2282,900,-1,1,0
0,2283,2120,-1,1,0
0,2284,11330,-1,1,0
0,2285,1010,-1,1,0
0,2286,620,-1,1,0
0,2287,1130,-1,1,0
0,2288,600,-1,1,0
0,2289,4750,1,1,0
0,2290,2100,-1,1,0
0,2291,2690,1,1,0
0,2292,7000,-1,1,0
0,2293,3810,1,1,0
0,2294,1390,-1,1,0
0,2295,3140,1,1,0
0,2296,3680,-1,1,0
0,2297,4370,1,1,0
0,2298,1690,-1,1,0
0,2299,2950,-1,1,0
0,2300,980,1,1,0
0,2301,2630,-1,1,0
0,2302,6560,-1,1,0
0,2303,1480,-1,1,0
0,2304,1400,-1,1,0
0,2305,6150,-1,1,0
0,2306,3530,1,1,0
0,2307,1560,-1,1,0
0,2308,7320,-1,1,0
0,2309,460,-1,1,0
0,2310,5140,1,1,0
0,2311,1690,1,1,0
0,2312,900,-1,1,0
0,2313,2960,-1,1,0
0,2314,500,-1,1,0
0,2315,1160,1,1,0
0,2316,1740,1,1,0
0,2317,650,-1,1,0
0,2318,6730,-1,1,0
0,2319,4240,-1,1,0
0,2320,1910,-1,1,0
0,2321,4110,1,1,0
0,2322,7380,-1,1,0
0,2323,780,-1,1,0
0,2324,2190,-1,1,0
0,2325,660,-1,1,0
0,2326,1500,1,1,0
0,2327,1460,-1,1,0
0,2328,910,1,1,0
0,2329,3760,-1,1,0
0,2330,1180,-1,1,0
0,2331,3710,-1,1,0
0,2332,460,-1,1,0
0,2333,2290,1,1,0
0,2334,9770,1,1,0
0,2335,2610,-1,1,0
0,2336,1690,1,1,0
0,2337,2810,-1,1,0
0,2338,2950,-1,1,0
0,2339,510,1,1,0
0,2340,310,1,1,0
0,2341,1340,1,1,0
0,2342,4160,-1,1,0
0,2343,2420,-1,1,0
0,2344,960,1,1,0
0,2345,7680,1,1,0
0,2346,500,-1,1,0
0,2347,1820,1,1,0
0,2348,1520,1,1,0
0,2349,1180,-1,1,0
0,2350,980,1,1,0
0,2351,3810,-1,1,0
0,2352,2950,-1,1,0
0,2353,800,-1,1,0
0,2354,760,-1,1,0
0,2355,620,-1,1,0
0,2356,2600,-1,1,0
0,2357,4760,-1,1,0
0,2358,4000,-1,1,0
0,2359,490,1,1,0
0,2360,1630,-1,1,0
0,2361,690,-1,1,0
0,2362,3760,-1,1,0
0,2363,1810,-1,1,0
0,2364,2830,1,1,0
0,2365,2120,-1,1,0
0,2366,1240,-1,1,0
0,2367,4740,1,1,0
0,2368,2240,-1,1,0
0,2369,640,-1,1,0
0,2370,1760,1,1,0
0,2371,3490,-1,1,0
0,2372,11240,-1,1,0
0,2373,11450,-1,1,0
0,2374,1110,1,1,0
0,2375,3560,-1,1,0
0,2376,12570,-1,1,0
0,2377,1050,-1,1,0
0,2378,1180,-1,1,0
0,2379,2400,-1,1,0
0,2380,360,-1,1,0
0,2381,6530,1,1,0
0,2382,2810,1,1,0
0,2383,3340,-1,1,0
0,2384,8490,-1,1,0
0,2385,1760,1,1,0
0,2386,2850,1,1,0
0,2387,1810,1,1,0
0,2388,3720,-1,1,0
0,2389,1190,-1,1,0
0,2390,1900,-1,1,0
0,2391,1620,1,1,0
0,2392,470,1,1,0
0,2393,1010,1,1,0
0,2394,2940,-1,1,0
0,2395,1070,-1,1,0
0,2396,1390,-1,1,0
0,2397,1180,1,1,0
0,2398,2120,-1,1,0
0,2399,1190,-1,1,0
0,2400,880,-1,1,1
0,2401,2150,1,1,1
0,2402,1420,1,1,1
0,2403,1540,-1,1,1
0,2404,9210,1,1,1
0,2405,6340,1,1,1
0,2406,1350,-1,1,1
0,2407,850,1,1,1
0,2408,1300,1,1,1
0,2409,1610,1,1,1
0,2410,550,-1,1,1
0,2411,1800,1,1,1
0,2412,3720,1,1,1
0,2413,1650,-1,1,1
0,2414,1980,1,1,1
0,2415,3830,-1,1,1
0,2416,2750,-1,1,1
0,2417,2900,1,1,1
0,2418,5370,1,1,1
0,2419,950,-1,1,1
0,2420,1030,-1,1,1
0,2421,4890,-1,1,1
0,2422,4230,1,1,1
0,2423,1510,-1,1,1
0,2424,1300,1,1,1
0,2425,1070,1,1,1
0,2426,1920,1,1,1
0,2427,1820,1,1,1
0,2428,520,-1,1,1
0,2429,2080,1,1,1
0,2430,5180,1,1,1
0,2431,2780,-1,1,1
0,2432,930,-1,1,1
0,2433,2660,-1,1,1
0,2434,2520,-1,1,1
0,2435,2820,1,1,1
0,2436,1830,1,1,1
0,2437,1550,-1,1,1
0,2438,1960,-1,1,1
0,2439,3880,1,1,1
0,2440,1750,-1,1,1
0,2441,1320,1,1,1
0,2442,3810,1,1,1
0,2443,3630,1,1,1
0,2444,2370,-1,1,1
0,2445,3160,-1,1,1
0,2446,3620,1,1,1
0,2447,830,-1,1,1
0,2448,6340,1,1,1
0,2449,1030,1,1,1
0,2450,1810,-1,1,1
0,2451,1690,1,1,1
0,2452,2170,-1,1,1
0,2453,1170,1,1,1
0,2454,2850,1,1,1
0,2455,1060,1,1,1
0,2456,5070,-1,1,1
0,2457,1470,-1,1,1
0,2458,5100,-1,1,1
0,2459,2260,-1,1,1
0,2460,6170,-1,1,1
0,2461,6240,-1,1,1
0,2462,1590,-1,1,1
0,2463,1750,-1,1,1
0,2464,2670,1,1,1
0,2465,1290,1,1,1
0,2466,900,-1,1,1
0,2467,4990,-1,1,1
0,2468,1700,1,1,1
0,2469,1710,-1,1,1
0,2470,1300,1,1,1
0,2471,2580,-1,1,1
0,2472,2160,1,1,1
0,2473,1080,1,1,1
0,2474,3080,1,1,1
0,2475,1280,-1,1,1
0,2476,1350,-1,1,1
0,2477,2440,1,1,1
0,2478,660,-1,1,1
0,2479,6120,1,1,1
0,2480,6830,-1,1,1
0,2481,13050,1,1,1
0,2482,2020,1,1,1
0,2483,3310,-1,1,1
0,2484,2720,1,1,1
0,2485,3990,1,1,1
0,2486,2300,-1,1,1
0,2487,1640,1,1,1
0,2488,840,-1,1,1
0,2489,1540,1,1,1
0,2490,1160,-1,1,1
0,2491,1240,-1,1,1
0,2492,1790,-1,1,1
0,2493,1340,-1,1,1
0,2494,3160,1,1,1
0,2495,900,1,1,1
0,2496,9010,-1,1,1
0,2497,5820,1,1,1
0,2498,2170,-1,1,1
0,2499,5210,-1,1,1
0,2500,610,-1,1,1
0,2501,1640,-1,1,1
0,2502,2450,1,1,1
0,2503,2330,-1,1,1
0,2504,9670,-1,1,1
0,2505,2970,-1,1,1
0,2506,1070,-1,1,1
0,2507,590,-1,1,1
0,2508,1270,-1,1,1
0,2509,2190,-1,1,1
0,2510,870,-1,1,1
0,2511,660,-1,1,1
0,2512,1780,-1,1,1
0,2513,1930,-1,1,1
0,2514,1730,1,1,1
0,2515,2660,1,1,1
0,2516,2790,1,1,1
0,2517,1790,1,1,1
0,2518,2820,-1,1,1
0,2519,1280,1,1,1
0,2520,3730,-1,1,1
0,2521,10340,1,1,1
0,2522,1310,-1,1,1
0,2523,2740,-1,1,1
0,2524,890,-1,1,1
0,2525,7280,-1,1,1
0,2526,11110,-1,1,1
0,2527,1080,-1,1,1
0,2528,2960,1,1,1
0,2529,2660,-1,1,1
0,2530,2050,1,1,1
0,2531,2730,-1,1,1
0,2532,2090,-1,1,1
0,2533,6030,-1,1,1
0,2534,1780,-1,1,1
0,2535,8480,-1,1,1
0,2536,6750,1,1,1
0,2537,470,-1,1,1
0,2538,2210,1,1,1
0,2539,2990,-1,1,1
0,2540,1950,-1,1,1
0,2541,970,-1,1,1
0,2542,7970,1,1,1
0,2543,2560,1,1,1
0,2544,4290,1,1,1
0,2545,2440,1,1,1
0,2546,10010,-1,1,1
0,2547,2540,-1,1,1
0,2548,4550,-1,1,1
0,2549,1730,1,1,1
0,2550,7420,-1,1,1
0,2551,2130,1,1,1
0,2552,2650,1,1,1
0,2553,1880,1,1,1
0,2554,1480,1,1,1
0,2555,770,1,1,1
0,2556,640,1,1,1
0,2557,1360,1,1,1
0,2558,800,1,1,1
0,2559,3990,-1,1,1
0,2560,16030,1,1,1
0,2561,3310,-1,1,1
0,2562,2110,1,1,1
0,2563,4390,1,1,1
0,2564,2040,-1,1,1
0,2565,910,1,1,1
0,2566,740,1,1,1
0,2567,2670,-1,1,1
0,2568,840,-1,1,1
0,2569,9130,-1,1,1
0,2570,970,-1,1,1
0,2571,1720,1,1,1
0,2572,400,-1,1,1
0,2573,6910,-1,1,1
0,2574,7220,-1,1,1
0,2575,460,1,1,1
0,2576,2330,-1,1,1
0,2577,1030,-1,1,1
0,2578,1980,1,1,1
0,2579,5690,-1,1,1
0,2580,1160,1,1,1
0,2581,880,1,1,1
0,2582,2030,-1,1,1
0,2583,5470,-1,1,1
0,2584,5190,1,1,1
0,2585,7990,-1,1,1
0,2586,5070,-1,1,1
0,2587,7470,1,1,1
0,2588,5590,-1,1,1
0,2589,2700,-1,1,1
0,2590,2390,-1,1,1
0,2591,3180,-1,1,1
0,2592,1610,-1,1,1
0,2593,860,-1,1,1
0,2594,11230,1,1,1
0,2595,3130,1,1,1
0,2596,7060,-1,1,1
0,2597,4770,1,1,1
0,2598,2910,1,1,1
0,2599,5920,1,1,1
0,2600,2360,-1,1,1
0,2601,4200,-1,1,1
0,2602,9060,-1,1,1
0,2603,2680,-1,1,1
0,2604,3250,-1,1,1
0,2605,2530,-1,1,1
0,2606,9720,-1,1,1
0,2607,1730,1,1,1
0,2608,2420,1,1,1
0,2609,930,1,1,1
0,2610,2380,-1,1,1
0,2611,2420,1,1,1
0,2612,1470,1,1,1
0,2613,2050,-1,1,1
0,2614,1060,1,1,1
0,2615,2260,1,1,1
0,2616,2350,-1,1,1
0,2617,2510,1,1,1
0,2618,570,-1,1,1
0,2619,5960,1,1,1
0,2620,870,-1,1,1
0,2621,2670,1,1,1
0,2622,3430,1,1,1
0,2623,1710,1,1,1
0,2624,1140,1,1,1
0,2625,5560,-1,1,1
0,2626,9900,-1,1,1
0,2627,1220,1,1,1
0,2628,1810,1,1,1
0,2629,3450,-1,1,1
0,2630,3160,-1,1,1
0,2631,1640,-1,1,1
0,2632,2630,1,1,1
0,2633,4490,1,1,1
0,2634,7200,1,1,1
0,2635,1470,1,1,1
0,2636,1230,-1,1,1
0,2637,1740,1,1,1
0,2638,2390,1,1,1
0,2639,1440,1,1,1
0,2640,1710,-1,1,1
0,2641,8120,-1,1,1
0,2642,2890,-1,1,1
0,2643,1280,1,1,1
0,2644,600,1,1,1
0,2645,2060,-1,1,1
0,2646,3880,1,1,1
0,2647,1700,-1,1,1
0,2648,2950,-1,1,1
0,2649,5810,1,1,1
0,2650,1620,-1,1,1
0,2651,1130,1,1,1
0,2652,1590,-1,1,1
0,2653,1870,-1,1,1
0,2654,1300,-1,1,1
0,2655,5540,-1,1,1
0,2656,1640,-1,1,1
0,2657,2470,-1,1,1
0,2658,5930,1,1,1
0,2659,1790,-1,1,1
0,2660,4050,-1,1,1
0,2661,660,-1,1,1
0,2662,6770,-1,1,1
0,2663,5840,1,1,1
0,2664,3960,1,1,1
0,2665,410,1,1,1
0,2666,2170,1,1,1
0,2667,6220,1,1,1
0,2668,11880,-1,1,1
0,2669,1720,1,1,1
0,2670,2670,1,1,1
0,2671,2010,-1,1,1
0,2672,4840,-1,1,1
0,2673,6590,1,1,1
0,2674,2550,-1,1,1
0,2675,1050,1,1,1
0,2676,1220,-1,1,1
0,2677,2900,-1,1,1
0,2678,710,1,1,1
0,2679,1570,-1,1,1
0,2680,1600,-1,1,1
0,2681,1420,-1,1,1
0,2682,840,-1,1,1
0,2683,4050,1,1,1
0,2684,820,1,1,1
0,2685,3520,1,1,1
0,2686,2650,-1,1,1
0,2687,3010,-1,1,1
0,2688,5290,-1,1,1
0,2689,3190,-1,1,1
0,2690,950,-1,1,1
0,2691,1850,-1,1,1
0,2692,2870,1,1,1
0,2693,2090,1,1,1
0,2694,5610,1,1,1
0,2695,1870,1,1,1
0,2696,1210,1,1,1
0,2697,8040,-1,1,1
0,2698,1740,-1,1,1
0,2699,2960,1,1,1
0,2700,2520,1,1,2
0,2701,3000,1,1,2
0,2702,2470,1,1,2
0,2703,790,1,1,2
0,2704,3090,-1,1,2
0,2705,1400,1,1,2
0,2706,3460,1,1,2
0,2707,2440,-1,1,2
0,2708,1300,1,1,2
0,2709,1060,-1,1,2
0,2710,760,-1,1,2
0,2711,1690,-1,1,2
0,2712,2670,1,1,2
0,2713,2780,1,1,2
0,2714,2340,1,1,2
0,2715,2150,-1,1,2
0,2716,6090,1,1,2
0,2717,5430,1,1,2
0,2718,2740,1,1,2
0,2719,1870,1,1,2
0,2720,1730,1,1,2
0,2721,5720,-1,1,2
0,2722,1380,1,1,2
0,2723,2740,1,1,2
0,2724,3690,1,1,2
0,2725,10190,-1,1,2
0,2726,2700,1,1,2
0,2727,2600,1,1,2
0,2728,1050,1,1,2
0,2729,1700,1,1,2
0,2730,1740,1,1,2
0,2731,1840,1,1,2
0,2732,2040,-1,1,2
0,2733,890,1,1,2
0,2734,6380,1,1,2
0,2735,1280,1,1,2
0,2736,1770,1,1,2
0,2737,1360,-1,1,2
0,2738,2290,-1,1,2
0,2739,9430,1,1,2
0,2740,3060,1,1,2
0,2741,2180,1,1,2
0,2742,6640,-1,1,2
0,2743,1460,-1,1,2
0,2744,1790,1,1,2
0,2745,2110,1,1,2
0,2746,2270,-1,1,2
0,2747,3310,-1,1,2
0,2748,3940,1,1,2
0,2749,1020,-1,1,2
0,2750,2610,-1,1,2
0,2751,710,1,1,2
0,2752,3390,1,1,2
0,2753,1770,-1,1,2
0,2754,3120,-1,1,2
0,2755,980,-1,1,2
0,2756,2090,1,1,2
0,2757,1080,1,1,2
0,2758,7930,1,1,2
0,2759,2340,-1,1,2
0,2760,4680,1,1,2
0,2761,2450,-1,1,2
0,2762,3600,-1,1,2
0,2763,940,-1,1,2
0,2764,4170,-1,1,2
0,2765,2030,1,1,2
0,2766,3390,1,1,2
0,2767,1530,1,1,2
0,2768,720,-1,1,2
0,2769,1560,-1,1,2
0,2770,840,1,1,2
0,2771,1050,-1,1,2
0,2772,1980,1,1,2
0,2773,4040,-1,1,2
0,2774,6990,1,1,2
0,2775,1880,-1,1,2
0,2776,2190,-1,1,2
0,2777,2200,1,1,2
0,2778,3310,1,1,2
0,2779,2050,-1,1,2
0,2780,1980,1,1,2
0,2781,580,-1,1,2
0,2782,1630,1,1,2
0,2783,860,-1,1,2
0,2784,960,-1,1,2
0,2785,2050,-1,1,2
0,2786,2310,1,1,2
0,2787,3730,1,1,2
0,2788,4240,-1,1,2
0,2789,1380,-1,1,2
0,2790,6270,1,1,2
0,2791,560,1,1,2
0,2792,550,-1,1,2
0,2793,1870,1,1,2
0,2794,3560,1,1,2
0,2795,2190,-1,1,2
0,2796,1040,1,1,2
0,2797,6810,-1,1,2
0,2798,2150,-1,1,2
0,2799,1530,1,1,2
0,2800,3380,1,1,2
0,2801,890,1,1,2
0,2802,1030,1,1,2
0,2803,3070,-1,1,2
0,2804,3090,1,1,2
0,2805,1540,-1,1,2
0,2806,4120,1,1,2
0,2807,5680,1,1,2
0,2808,8120,1,1,2
0,2809,2080,-1,1,2
0,2810,1330,1,1,2
0,2811,1210,-1,1,2
0,2812,1160,-1,1,2
0,2813,940,-1,1,2
0,2814,990,1,1,2
0,2815,1880,-1,1,2
0,2816,2680,1,1,2
0,2817,1010,-1,1,2
0,2818,2090,1,1,2
0,2819,3840,-1,1,2
0,2820,760,-1,1,2
0,2821,4470,1,1,2
0,2822,3720,1,1,2
0,2823,3890,1,1,2
0,2824,1370,1,1,2
0,2825,1900,1,1,2
0,2826,1630,1,1,2
0,2827,4870,-1,1,2
0,2828,3860,1,1,2
0,2829,2290,1,1,2
0,2830,970,-1,1,2
0,2831,2370,-1,1,2
0,2832,2700,1,1,2
0,2833,2010,1,1,2
0,2834,2020,1,1,2
0,2835,4430,1,1,2
0,2836,7850,1,1,2
0,2837,3600,1,1,2
0,2838,1670,-1,1,2
0,2839,6020,1,1,2
0,2840,1230,-1,1,2
0,2841,11130,-1,1,2
0,2842,860,1,1,2
0,2843,5580,1,1,2
0,2844,1700,1,1,2
0,2845,1290,1,1,2
0,2846,7610,1,1,2
0,2847,2970,1,1,2
0,2848,1510,1,1,2
0,2849,1020,1,1,2
0,2850,2340,-1,1,2
0,2851,3230,-1,1,2
0,2852,440,-1,1,2
0,2853,1000,1,1,2
0,2854,1090,1,1,2
0,2855,680,-1,1,2
0,2856,2230,1,1,2
0,2857,1030,-1,1,2
0,2858,950,-1,1,2
0,2859,520,-1,1,2
0,2860,660,1,1,2
0,2861,7200,1,1,2
0,2862,730,-1,1,2
0,2863,1610,1,1,2
0,2864,11850,-1,1,2
0,2865,4410,-1,1,2
0,2866,7200,1,1,2
0,2867,1410,1,1,2
0,2868,2920,-1,1,2
0,2869,2560,1,1,2
0,2870,3430,-1,1,2
0,2871,890,1,1,2
0,2872,4230,-1,1,2
0,2873,1380,1,1,2
0,2874,5460,1,1,2
0,2875,1600,1,1,2
0,2876,3990,1,1,2
0,2877,4360,-1,1,2
0,2878,2970,-1,1,2
0,2879,1990,1,1,2
0,2880,8620,-1,1,2
0,2881,860,1,1,2
0,2882,2120,1,1,2
0,2883,4650,-1,1,2
0,2884,2010,-1,1,2
0,2885,3560,1,1,2
0,2886,920,-1,1,2
0,2887,850,-1,1,2
0,2888,1040,-1,1,2
0,2889,1300,-1,1,2
0,2890,1240,1,1,2
0,2891,3900,1,1,2
0,2892,720,1,1,2
0,2893,11110,1,1,2
0,2894,5260,1,1,2
0,2895,1400,1,1,2
0,2896,2450,-1,1,2
0,2897,3330,1,1,2
0,2898,2930,1,1,2
0,2899,1490,1,1,2
0,2900,1370,1,1,2
0,2901,2900,-1,1,2
0,2902,1150,-1,1,2
0,2903,980,-1,1,2
0,2904,640,-1,1,2
0,2905,1030,1,1,2
0,2906,970,1,1,2
0,2907,1080,1,1,2
0,2908,3380,1,1,2
0,2909,3850,1,1,2
0,2910,3650,1,1,2
0,2911,1660,1,1,2
0,2912,2040,1,1,2
0,2913,6170,1,1,2
0,2914,1600,1,1,2
0,2915,1730,-1,1,2
0,2916,2490,-1,1,2
0,2917,4930,1,1,2
0,2918,1940,-1,1,2
0,2919,400,1,1,2
0,2920,5100,1,1,2
0,2921,1080,-1,1,2
0,2922,6390,-1,1,2
0,2923,1440,1,1,2
0,2924,1180,1,1,2
0,2925,4740,-1,1,2
0,2926,820,1,1,2
0,2927,820,-1,1,2
0,2928,4650,-1,1,2
0,2929,1700,1,1,2
0,2930,3710,1,1,2
0,2931,1160,-1,1,2
0,2932,2300,1,1,2
0,2933,2810,1,1,2
0,2934,2860,-1,1,2
0,2935,860,-1,1,2
0,2936,2080,1,1,2
0,2937,2230,1,1,2
0,2938,3710,1,1,2
0,2939,1940,1,1,2
0,2940,980,-1,1,2
0,2941,560,1,1,2
0,2942,1360,1,1,2
0,2943,820,1,1,2
0,2944,4080,1,1,2
0,2945,4110,-1,1,2
0,2946,1780,1,1,2
0,2947,800,1,1,2
0,2948,2240,1,1,2
0,2949,4560,1,1,2
0,2950,4320,-1,1,2
0,2951,3480,1,1,2
0,2952,1460,1,1,2
0,2953,2850,1,1,2
0,2954,3310,-1,1,2
0,2955,400,-1,1,2
0,2956,880,-1,1,2
0,2957,830,1,1,2
0,2958,1490,1,1,2
0,2959,1920,-1,1,2
0,2960,1030,1,1,2
0,2961,1620,-1,1,2
0,2962,440,1,1,2
0,2963,1180,1,1,2
0,2964,720,-1,1,2
0,2965,2490,1,1,2
0,2966,1450,1,1,2
0,2967,3400,-1,1,2
0,2968,4030,-1,1,2
0,2969,1430,-1,1,2
0,2970,10490,1,1,2
0,2971,3450,-1,1,2
0,2972,610,-1,1,2
0,2973,2820,1,1,2
0,2974,7600,1,1,2
0,2975,2330,-1,1,2
0,2976,1510,-1,1,2
0,2977,1390,1,1,2
0,2978,4370,1,1,2
0,2979,920,1,1,2
0,2980,750,1,1,2
0,2981,3180,-1,1,2
0,2982,5660,1,1,2
0,2983,1590,1,1,2
0,2984,4070,-1,1,2
0,2985,1060,1,1,2
0,2986,1140,-1,1,2
0,2987,1240,1,1,2
0,2988,1000,-1,1,2
0,2989,1470,1,1,2
0,2990,2720,1,1,2
0,2991,1960,1,1,2
0,2992,2720,-1,1,2
0,2993,1280,1,1,2
0,2994,2090,1,1,2
0,2995,6510,1,1,2
0,2996,580,1,1,2
0,2997,1180,1,1,2
0,2998,2100,-1,1,2
0,2999,7500,-1,1,2
0,3000,4550,1,1,2
0,3001,1140,1,1,2
0,3002,780,1,1,2
0,3003,790,-1,1,2
0,3004,1340,1,1,2
0,3005,1950,1,1,2
0,3006,3270,-1,1,2
0,3007,12390,1,1,2
0,3008,820,-1,1,2
0,3009,320,1,1,2
0,3010,5960,1,1,2
0,3011,310,-1,1,2
0,3012,760,1,1,2
0,3013,830,1,1,2
0,3014,2500,1,1,2
0,3015,680,1,1,2
0,3016,2310,1,1,2
0,3017,1200,-1,1,2
0,3018,1430,-1,1,2
0,3019,2350,1,1,2
0,3020,2070,1,1,2
0,3021,1680,1,1,2
0,3022,2120,1,1,2
0,3023,920,1,1,2
0,3024,3910,-1,1,2
0,3025,1790,-1,1,2
0,3026,2720,1,1,2
0,3027,2710,1,1,2
0,3028,4910,-1,1,2
0,3029,2370,-1,1,2
0,3030,5520,1,1,2
0,3031,3610,-1,1,2
0,3032,2190,-1,1,2
0,3033,2850,1,1,2
0,3034,1340,1,1,2
0,3035,2880,1,1,2
0,3036,1720,1,1,2
0,3037,2460,1,1,2
0,3038,5570,-1,1,2
0,3039,3380,1,1,2
0,3040,1770,1,1,2
0,3041,590,-1,1,2
0,3042,940,-1,1,2
0,3043,790,-1,1,2
0,3044,7480,-1,1,2
0,3045,5810,1,1,2
0,3046,1380,1,1,2
0,3047,1580,1,1,2
0,3048,1990,1,1,2
0,3049,1090,1,1,2
0,3050,510,1,1,2
0,3051,760,-1,1,2
0,3052,1310,-1,1,2
0,3053,2270,-1,1,2
0,3054,2350,-1,1,2
0,3055,1800,1,1,2
0,3056,2720,1,1,2
0,3057,1440,1,1,2
0,3058,680,-1,1,2
0,3059,1230,1,1,2
0,3060,5800,1,1,2
0,3061,4790,1,1,2
0,3062,390,1,1,2
0,3063,750,1,1,2
0,3064,5420,1,1,2
0,3065,5200,1,1,2
0,3066,3320,1,1,2
0,3067,1390,-1,1,2
0,3068,10770,-1,1,2
0,3069,1990,1,1,2
0,3070,500,-1,1,2
0,3071,500,-1,1,2
0,3072,2660,1,1,2
0,3073,1190,-1,1,2
0,3074,2900,-1,1,2
0,3075,1120,1,1,2
0,3076,1000,1,1,2
0,3077,920,-1,1,2
0,3078,820,1,1,2
0,3079,3250,1,1,2
0,3080,1540,-1,1,2
0,3081,590,1,1,2
0,3082,1100,-1,1,2
0,3083,3700,-1,1,2
0,3084,3010,-1,1,2
0,3085,1150,1,1,2
0,3086,2630,1,1,2
0,3087,360,1,1,2
0,3088,5590,1,1,2
0,3089,730,-1,1,2
0,3090,2220,-1,1,2
0,3091,1120,-1,1,2
0,3092,7220,1,1,2
0,3093,1310,1,1,2
0,3094,1910,1,1,2
0,3095,2470,1,1,2
0,3096,3590,1,1,2
0,3097,5410,1,1,2
0,3098,1380,1,1,2
0,3099,1120,1,1,2
0,3100,560,1,1,2
0,3101,2500,1,1,2
0,3102,3120,-1,1,2
0,3103,780,1,1,2
0,3104,1740,1,1,2
0,3105,6420,-1,1,2
0,3106,8410,1,1,2
0,3107,280,1,1,2
0,3108,2650,-1,1,2
0,3109,5020,1,1,2
0,3110,5140,-1,1,2
0,3111,2330,1,1,2
0,3112,3920,1,1,2
0,3113,1030,1,1,2
0,3114,360,-1,1,2
0,3115,2470,1,1,2
0,3116,1300,1,1,2
0,3117,2170,-1,1,2
0,3118,1470,-1,1,2
0,3119,800,1,1,2
0,3120,2360,-1,1,2
0,3121,2680,1,1,2
0,3122,2460,-1,1,2
0,3123,4470,1,1,2
0,3124,1430,-1,1,2
0,3125,2840,1,1,2
0,3126,2350,1,1,2
0,3127,500,-1,1,2
0,3128,3520,-1,1,2
0,3129,3960,1,1,2
0,3130,2360,1,1,2
0,3131,1690,-1,1,2
0,3132,3210,-1,1,2
0,3133,14160,1,1,2
0,3134,1490,1,1,2
0,3135,770,1,1,2
0,3136,5320,1,1,2
0,3137,2930,-1,1,2
0,3138,4460,1,1,2
0,3139,360,-1,1,2
0,3140,3370,1,1,2
0,3141,2460,-1,1,2
0,3142,1430,1,1,2
0,3143,2620,1,1,2
0,3144,2110,-1,1,2
0,3145,5500,1,1,2
0,3146,1650,1,1,2
0,3147,1200,1,1,2
0,3148,3970,1,1,2
0,3149,810,1,1,2
0,3150,3680,1,1,2
0,3151,1940,1,1,2
0,3152,5000,1,1,2
0,3153,1910,-1,1,2
0,3154,1130,1,1,2
0,3155,6630,1,1,2
0,3156,1950,-1,1,2
0,3157,1990,1,1,2
0,3158,2560,-1,1,2
0,3159,1820,1,1,2
0,3160,440,1,1,2
0,3161,1060,1,1,2
0,3162,1420,1,1,2
0,3163,810,-1,1,2
0,3164,6750,1,1,2
0,3165,4530,1,1,2
0,3166,560,1,1,2
0,3167,3670,1,1,2
0,3168,3190,1,1,2
0,3169,1390,-1,1,2
0,3170,2020,1,1,2
0,3171,2710,1,1,2
0,3172,4660,-1,1,2
0,3173,1660,1,1,2
0,3174,6630,1,1,2
0,3175,2280,-1,1,2
0,3176,3500,-1,1,2
0,3177,450,1,1,2
0,3178,2290,1,1,2
0,3179,4390,1,1,2
0,3180,5760,1,1,2
0,3181,1870,-1,1,2
0,3182,5790,1,1,2
0,3183,970,-1,1,2
0,3184,450,-1,1,2
0,3185,3070,1,1,2
0,3186,1080,1,1,2
0,3187,5250,1,1,2
0,3188,2420,-1,1,2
0,3189,860,1,1,2
0,3190,1870,-1,1,2
0,3191,3560,-1,1,2
0,3192,1090,1,1,2
0,3193,2100,1,1,2
0,3194,1640,-1,1,2
0,3195,1240,1,1,2
0,3196,1780,1,1,2
0,3197,1810,1,1,2
0,3198,850,-1,1,2
0,3199,1860,1,1,2
0,3200,740,1,1,2
0,3201,4930,1,1,2
0,3202,580,-1,1,2
0,3203,2840,-1,1,2
0,3204,2850,1,1,2
0,3205,1070,1,1,2
0,3206,3920,-1,1,2
0,3207,2370,-1,1,2
0,3208,2130,1,1,2
0,3209,950,1,1,2
0,3210,2680,1,1,2
0,3211,3510,1,1,2
0,3212,2560,1,1,2
0,3213,940,-1,1,2
0,3214,2390,1,1,2
0,3215,4470,1,1,2
0,3216,1950,1,1,2
0,3217,250,-1,1,2
0,3218,1540,1,1,2
0,3219,9250,1,1,2
0,3220,5300,1,1,2
0,3221,3670,1,1,2
0,3222,540,1,1,2
0,3223,3860,1,1,2
0,3224,1090,1,1,2
0,3225,8530,1,1,2
0,3226,2100,1,1,2
0,3227,2690,1,1,2
0,3228,590,1,1,2
0,3229,1010,1,1,2
0,3230,660,-1,1,2
0,3231,3540,1,1,2
0,3232,7220,-1,1,2
0,3233,270,-1,1,2
0,3234,2470,-1,1,2
0,3235,720,-1,1,2
0,3236,1180,1,1,2
0,3237,2950,1,1,2
0,3238,4700,1,1,2
0,3239,2120,1,1,2
0,3240,1530,1,1,2
0,3241,5490,1,1,2
0,3242,3750,-1,1,2
0,3243,2460,-1,1,2
0,3244,390,-1,1,2
0,3245,1830,1,1,2
0,3246,2850,1,1,2
0,3247,780,-1,1,2
0,3248,4410,1,1,2
0,3249,1310,1,1,2
0,3250,1020,-1,1,2
0,3251,1440,-1,1,2
0,3252,400,-1,1,2
0,3253,2090,1,1,2
0,3254,1850,1,1,2
0,3255,3900,1,1,2
0,3256,1180,-1,1,2
0,3257,7260,-1,1,2
0,3258,1490,1,1,2
0,3259,6800,1,1,2
0,3260,4860,1,1,2
0,3261,1240,-1,1,2
0,3262,3180,1,1,2
0,3263,640,-1,1,2
0,3264,1050,-1,1,2
0,3265,2870,1,1,2
0,3266,420,-1,1,2
0,3267,760,1,1,2
0,3268,3700,1,1,2
0,3269,5220,1,1,2
0,3270,3450,1,1,2
0,3271,3010,-1,1,2
0,3272,1550,-1,1,2
0,3273,480,-1,1,2
0,3274,7410,-1,1,2
0,3275,3160,-1,1,2
0,3276,1080,1,1,2
0,3277,5490,1,1,2
0,3278,2410,-1,1,2
0,3279,3090,-1,1,2
0,3280,4360,1,1,2
0,3281,750,1,1,2
0,3282,2420,-1,1,2
0,3283,7070,-1,1,2
0,3284,710,-1,1,2
0,3285,3530,1,1,2
0,3286,5310,1,1,2
0,3287,1370,-1,1,2
0,3288,1660,1,1,2
0,3289,1890,1,1,2
0,3290,790,1,1,2
0,3291,1170,-1,1,2
0,3292,2410,1,1,2
0,3293,1030,-1,1,2
0,3294,1000,1,1,2
0,3295,3600,1,1,2
0,3296,2200,1,1,2
0,3297,1050,1,1,2
0,3298,3390,1,1,2
0,3299,1520,1,1,2
0,3300,2430,1,1,3
0,3301,970,1,1,3
0,3302,1130,1,1,3
0,3303,1230,1,1,3
0,3304,1790,1,1,3
0,3305,2820,1,1,3
0,3306,800,-1,1,3
0,3307,2010,1,1,3
0,3308,3860,1,1,3
0,3309,2160,1,1,3
0,3310,2060,1,1,3
0,3311,2210,1,1,3
0,3312,2970,-1,1,3
0,3313,860,1,1,3
0,3314,2730,-1,1,3
0,3315,1650,1,1,3
0,3316,4620,-1,1,3
0,3317,2780,1,1,3
0,3318,2090,1,1,3
0,3319,640,1,1,3
0,3320,1910,1,1,3
0,3321,1670,1,1,3
0,3322,2790,1,1,3
0,3323,4400,1,1,3
0,3324,2960,1,1,3
0,3325,2810,1,1,3
0,3326,1050,1,1,3
0,3327,3450,1,1,3
0,3328,1290,1,1,3
0,3329,2630,1,1,3
0,3330,860,1,1,3
0,3331,2600,-1,1,3
0,3332,2290,1,1,3
0,3333,2000,1,1,3
0,3334,4670,1,1,3
0,3335,1990,1,1,3
0,3336,4290,1,1,3
0,3337,1220,1,1,3
0,3338,1900,1,1,3
0,3339,2870,-1,1,3
0,3340,3180,1,1,3
0,3341,2370,1,1,3
0,3342,2600,1,1,3
0,3343,1160,1,1,3
0,3344,1820,1,1,3
0,3345,3480,1,1,3
0,3346,2920,1,1,3
0,3347,3300,1,1,3
0,3348,2090,1,1,3
0,3349,730,-1,1,3
0,3350,2080,1,1,3
0,3351,1320,1,1,3
0,3352,7110,-1,1,3
0,3353,1680,1,1,3
0,3354,1410,1,1,3
0,3355,2380,1,1,3
0,3356,1040,1,1,3
0,3357,3690,1,1,3
0,3358,730,-1,1,3
0,3359,1780,1,1,3
0,3360,2010,1,1,3
0,3361,880,-1,1,3
0,3362,1170,1,1,3
0,3363,4480,1,1,3
0,3364,4710,1,1,3
0,3365,1790,1,1,3
0,3366,1600,1,1,3
0,3367,1260,1,1,3
0,3368,1440,1,1,3
0,3369,770,1,1,3
0,3370,2490,1,1,3
0,3371,2210,1,1,3
0,3372,3290,-1,1,3
0,3373,800,1,1,3
0,3374,3530,1,1,3
0,3375,510,1,1,3
0,3376,1090,1,1,3
0,3377,1020,1,1,3
0,3378,1000,-1,1,3
0,3379,2650,1,1,3
0,3380,2830,1,1,3
0,3381,1030,-1,1,3
0,3382,1290,1,1,3
0,3383,1410,1,1,3
0,3384,1520,1,1,3
0,3385,1190,1,1,3
0,3386,390,1,1,3
0,3387,2250,1,1,3
0,3388,650,-1,1,3
0,3389,2150,1,1,3
0,3390,1980,1,1,3
0,3391,3540,-1,1,3
0,3392,2890,1,1,3
0,3393,720,1,1,3
0,3394,660,1,1,3
0,3395,1900,1,1,3
0,3396,2050,1,1,3
0,3397,1680,1,1,3
0,3398,2010,1,1,3
0,3399,7690,1,1,3
0,3400,3980,1,1,3
0,3401,4050,-1,1,3
0,3402,5180,1,1,3
0,3403,1270,1,1,3
0,3404,1500,1,1,3
0,3405,5780,1,1,3
0,3406,670,1,1,3
0,3407,2060,1,1,3
0,3408,6870,1,1,3
0,3409,1700,1,1,3
0,3410,2380,-1,1,3
0,3411,1040,1,1,3
0,3412,2140,1,1,3
0,3413,920,1,1,3
0,3414,3720,1,1,3
0,3415,4370,1,1,3
0,3416,1040,1,1,3
0,3417,2970,1,1,3
0,3418,1250,1,1,3
0,3419,2840,1,1,3
0,3420,1750,1,1,3
0,3421,1940,1,1,3
0,3422,2880,-1,1,3
0,3423,3000,1,1,3
0,3424,2880,1,1,3
0,3425,3960,1,1,3
0,3426,1340,1,1,3
0,3427,470,1,1,3
0,3428,2080,1,1,3
0,3429,3380,1,1,3
0,3430,9370,-1,1,3
0,3431,570,1,1,3
0,3432,2180,1,1,3
0,3433,810,1,1,3
0,3434,2360,-1,1,3
0,3435,2240,1,1,3
0,3436,1900,1,1,3
0,3437,2210,1,1,3
0,3438,2200,1,1,3
0,3439,2940,-1,1,3
0,3440,2320,1,1,3
0,3441,1530,1,1,3
0,3442,830,1,1,3
0,3443,1690,1,1,3
0,3444,720,1,1,3
0,3445,530,1,1,3
0,3446,1730,1,1,3
0,3447,2390,1,1,3
0,3448,930,-1,1,3
0,3449,1330,1,1,3
0,3450,4230,1,1,3
0,3451,2190,1,1,3
0,3452,2390,1,1,3
0,3453,2930,1,1,3
0,3454,1730,1,1,3
0,3455,1400,-1,1,3
0,3456,1410,1,1,3
0,3457,1130,1,1,3
0,3458,8490,1,1,3
0,3459,2040,1,1,3
0,3460,5320,1,1,3
0,3461,2050,1,1,3
0,3462,1520,1,1,3
0,3463,1740,1,1,3
0,3464,1900,-1,1,3
0,3465,1070,1,1,3
0,3466,930,1,1,3
0,3467,1000,1,1,3
0,3468,1600,1,1,3
0,3469,1070,1,1,3
0,3470,1530,1,1,3
0,3471,5680,1,1,3
0,3472,6810,1,1,3
0,3473,3210,1,1,3
0,3474,2440,-1,1,3
0,3475,3250,1,1,3
0,3476,1150,1,1,3
0,3477,1010,-1,1,3
0,3478,1690,1,1,3
0,3479,1450,1,1,3
0,3480,760,-1,1,3
0,3481,860,1,1,3
0,3482,1860,1,1,3
0,3483,2830,1,1,3
0,3484,1310,1,1,3
0,3485,1380,1,1,3
0,3486,1120,-1,1,3
0,3487,2640,-1,1,3
0,3488,1580,1,1,3
0,3489,2830,-1,1,3
0,3490,5450,1,1,3
0,3491,1320,1,1,3
0,3492,2690,-1,1,3
0,3493,1550,1,1,3
0,3494,3290,1,1,3
0,3495,1350,1,1,3
0,3496,760,1,1,3
0,3497,1620,1,1,3
0,3498,1770,1,1,3
0,3499,1190,1,1,3
0,3500,1850,1,1,3
0,3501,6580,1,1,3
0,3502,1260,-1,1,3
0,3503,4700,1,1,3
0,3504,1900,1,1,3
0,3505,1190,1,1,3
0,3506,1230,-1,1,3
0,3507,1780,1,1,3
0,3508,2730,1,1,3
0,3509,4410,1,1,3
0,3510,740,1,1,3
0,3511,2000,1,1,3
0,3512,2110,1,1,3
0,3513,1510,1,1,3
0,3514,630,-1,1,3
0,3515,1980,1,1,3
0,3516,650,1,1,3
0,3517,1590,1,1,3
0,3518,490,1,1,3
0,3519,1790,1,1,3
0,3520,1870,1,1,3
0,3521,2620,1,1,3
0,3522,2390,1,1,3
0,3523,3200,1,1,3
0,3524,1150,1,1,3
0,3525,1410,1,1,3
0,3526,1530,1,1,3
0,3527,2600,1,1,3
0,3528,1450,1,1,3
0,3529,490,1,1,3
0,3530,2520,-1,1,3
0,3531,1640,1,1,3
0,3532,1170,-1,1,3
0,3533,1860,1,1,3
0,3534,2410,1,1,3
0,3535,4110,1,1,3
0,3536,1650,1,1,3
0,3537,2050,1,1,3
0,3538,980,1,1,3
0,3539,1630,1,1,3
0,3540,1850,-1,1,3
0,3541,350,-1,1,3
0,3542,3250,1,1,3
0,3543,1260,1,1,3
0,3544,3230,-1,1,3
0,3545,590,1,1,3
0,3546,1050,1,1,3
0,3547,1220,1,1,3
0,3548,1020,-1,1,3
0,3549,1090,-1,1,3
0,3550,1910,1,1,3
0,3551,1690,1,1,3
0,3552,2230,1,1,3
0,3553,560,1,1,3
0,3554,7460,1,1,3
0,3555,940,-1,1,3
0,3556,650,1,1,3
0,3557,1680,1,1,3
0,3558,3000,1,1,3
0,3559,1570,1,1,3
0,3560,550,1,1,3
0,3561,5030,1,1,3
0,3562,940,1,1,3
0,3563,1660,1,1,3
0,3564,1390,1,1,3
0,3565,1100,1,1,3
0,3566,820,1,1,3
0,3567,3370,1,1,3
0,3568,1880,1,1,3
0,3569,300,-1,1,3
0,3570,1850,1,1,3
0,3571,2640,1,1,3
0,3572,640,1,1,3
0,3573,1710,1,1,3
0,3574,1470,1,1,3
0,3575,1270,1,1,3
0,3576,3420,1,1,3
0,3577,1880,1,1,3
0,3578,1090,1,1,3
0,3579,4490,1,1,3
0,3580,4090,1,1,3
0,3581,1420,1,1,3
0,3582,460,1,1,3
0,3583,2700,1,1,3
0,3584,4250,1,1,3
0,3585,900,1,1,3
0,3586,1100,1,1,3
0,3587,1450,1,1,3
0,3588,580,-1,1,3
0,3589,7570,1,1,3
0,3590,2370,1,1,3
0,3591,2760,1,1,3
0,3592,1810,1,1,3
0,3593,940,1,1,3
0,3594,500,-1,1,3
0,3595,1080,1,1,3
0,3596,970,1,1,3
0,3597,1770,1,1,3
0,3598,7580,1,1,3
0,3599,2050,1,1,3
0,3600,1900,-1,2,0
0,3601,890,-1,2,0
0,3602,2330,-1,2,0
0,3603,2760,-1,2,0
0,3604,3070,-1,2,0
0,3605,1980,-1,2,0
0,3606,3900,1,2,0
0,3607,1570,-1,2,0
0,3608,2170,-1,2,0
0,3609,3160,-1,2,0
0,3610,2270,-1,2,0
0,3611,3330,-1,2,0
0,3612,5760,-1,2,0
0,3613,1110,-1,2,0
0,3614,1000,-1,2,0
0,3615,2380,-1,2,0
0,3616,2810,-1,2,0
0,3617,2580,1,2,0
0,3618,760,-1,2,0
0,3619,4900,-1,2,0
0,3620,2040,1,2,0
0,3621,11660,-1,2,0
0,3622,890,1,2,0
0,3623,990,1,2,0
0,3624,4670,-1,2,0
0,3625,840,-1,2,0
0,3626,710,1,2,0
0,3627,4400,-1,2,0
0,3628,1100,-1,2,0
0,3629,1570,1,2,0
0,3630,610,-1,2,0
0,3631,2970,-1,2,0
0,3632,870,-1,2,0
0,3633,460,-1,2,0
0,3634,3140,-1,2,0
0,3635,2360,-1,2,0
0,3636,1930,-1,2,0
0,3637,3340,-1,2,0
0,3638,4850,-1,2,0
0,3639,1880,-1,2,0
0,3640,800,-1,2,0
0,3641,1640,-1,2,0
0,3642,920,1,2,0
0,3643,1200,-1,2,0
0,3644,1090,-1,2,0
0,3645,5250,1,2,0
0,3646,1590,-1,2,0
0,3647,740,-1,2,0
0,3648,3570,-1,2,0
0,3649,3140,-1,2,0
0,3650,2160,-1,2,0
0,3651,2800,-1,2,0
0,3652,3900,-1,2,0
0,3653,1320,-1,2,0
0,3654,1100,1,2,0
0,3655,1210,-1,2,0
0,3656,5780,-1,2,0
0,3657,2220,-1,2,0
0,3658,450,1,2,0
0,3659,570,1,2,0
0,3660,3390,1,2,0
0,3661,1700,-1,2,0
0,3662,1030,-1,2,0
0,3663,1040,-1,2,0
0,3664,470,-1,2,0
0,3665,7610,-1,2,0
0,3666,750,-1,2,0
0,3667,1230,-1,2,0
0,3668,1280,-1,2,0
0,3669,2210,-1,2,0
0,3670,4600,-1,2,0
0,3671,1590,-1,2,0
0,3672,2080,1,2,0
0,3673,2320,-1,2,0
0,3674,3560,-1,2,0
0,3675,550,-1,2,0
0,3676,640,-1,2,0
0,3677,2580,-1,2,0
0,3678,1490,-1,2,0
0,3679,4970,1,2,0
0,3680,6230,-1,2,0
0,3681,3300,-1,2,0
0,3682,390,1,2,0
0,3683,3110,-1,2,0
0,3684,4730,-1,2,0
0,3685,1090,-1,2,0
0,3686,3660,-1,2,0
0,3687,1040,-1,2,0
0,3688,690,1,2,0
0,3689,3630,-1,2,0
0,3690,600,-1,2,0
0,3691,2890,1,2,0
0,3692,840,1,2,0
0,3693,1120,-1,2,0
0,3694,1390,-1,2,0
0,3695,5520,-1,2,0
0,3696,1860,-1,2,0
0,3697,2080,-1,2,0
0,3698,5750,-1,2,0
0,3699,700,-1,2,0
0,3700,2270,1,2,0
0,3701,1700,-1,2,0
0,3702,4140,1,2,0
0,3703,2240,-1,2,0
0,3704,680,1,2,0
0,3705,1090,-1,2,0
0,3706,3400,-1,2,0
0,3707,2140,-1,2,0
0,3708,3300,-1,2,0
0,3709,1500,-1,2,0
0,3710,3660,-1,2,0
0,3711,1210,-1,2,0
0,3712,2250,-1,2,0
0,3713,930,-1,2,0
0,3714,3000,-1,2,0
0,3715,1810,-1,2,0
0,3716,790,-1,2,0
0,3717,2910,-1,2,0
0,3718,920,-1,2,0
0,3719,420,-1,2,0
0,3720,3010,-1,2,0
0,3721,940,-1,2,0
0,3722,990,-1,2,0
0,3723,6210,-1,2,0
0,3724,1280,1,2,0
0,3725,1200,-1,2,0
0,3726,5420,-1,2,0
0,3727,1470,-1,2,0
0,3728,840,-1,2,0
0,3729,4800,-1,2,0
0,3730,920,-1,2,0
0,3731,3570,-1,2,0
0,3732,2200,1,2,0
0,3733,1620,-1,2,0
0,3734,2830,-1,2,0
0,3735,1020,-1,2,0
0,3736,530,-1,2,0
0,3737,9120,-1,2,0
0,3738,810,-1,2,0
0,3739,2110,-1,2,0
0,3740,800,-1,2,0
0,3741,810,-1,2,0
0,3742,500,-1,2,0
0,3743,4280,-1,2,0
0,3744,1220,-1,2,0
0,3745,600,-1,2,0
0,3746,1030,-1,2,0
0,3747,3620,-1,2,0
0,3748,710,-1,2,0
0,3749,750,-1,2,0
0,3750,1530,-1,2,0
0,3751,5640,-1,2,0
0,3752,560,1,2,0
0,3753,1890,1,2,0
0,3754,600,-1,2,0
0,3755,820,-1,2,0
0,3756,5930,-1,2,0
0,3757,1480,-1,2,0
0,3758,400,-1,2,0
0,3759,750,-1,2,0
0,3760,2670,-1,2,0
0,3761,2140,-1,2,0
0,3762,1980,-1,2,0
0,3763,8490,-1,2,0
0,3764,1150,-1,2,0
0,3765,620,-1,2,0
0,3766,1510,-1,2,0
0,3767,1540,-1,2,0
0,3768,3290,-1,2,0
0,3769,3130,-1,2,0
0,3770,840,-1,2,0
0,3771,1560,-1,2,0
0,3772,1730,-1,2,0
0,3773,5690,-1,2,0
0,3774,530,-1,2,0
0,3775,2650,-1,2,0
0,3776,590,-1,2,0
0,3777,830,-1,2,0
0,3778,860,-1,2,0
0,3779,1710,-1,2,0
0,3780,1860,-1,2,0
0,3781,4630,1,2,0
0,3782,880,-1,2,0
0,3783,900,-1,2,0
0,3784,1320,-1,2,0
0,3785,990,-1,2,0
0,3786,210,1,2,0
0,3787,4730,-1,2,0
0,3788,5580,-1,2,0
0,3789,1840,1,2,0
0,3790,2380,-1,2,0
0,3791,1320,-1,2,0
0,3792,2010,-1,2,0
0,3793,3940,-1,2,0
0,3794,1460,-1,2,0
0,3795,1360,1,2,0
0,3796,3430,1,2,0
0,3797,860,-1,2,0
0,3798,2950,-1,2,0
0,3799,830,-1,2,0
0,3800,1640,-1,2,0
0,3801,970,-1,2,0
0,3802,1110,-1,2,0
0,3803,1040,-1,2,0
0,3804,310,-1,2,0
0,3805,240,1,2,0
0,3806,4120,-1,2,0
0,3807,1840,-1,2,0
0,3808,2000,-1,2,0
0,3809,1250,-1,2,0
0,3810,940,-1,2,0
0,3811,2560,-1,2,0
0,3812,4020,-1,2,0
0,3813,710,-1,2,0
0,3814,2190,-1,2,0
0,3815,920,1,2,0
0,3816,1860,-1,2,0
0,3817,1130,-1,2,0
0,3818,2450,-1,2,0
0,3819,3010,-1,2,0
0,3820,1200,1,2,0
0,3821,1800,-1,2,0
0,3822,1200,-1,2,0
0,3823,3560,-1,2,0
0,3824,2200,-1,2,0
0,3825,2100,-1,2,0
0,3826,2280,-1,2,0
0,3827,4200,-1,2,0
0,3828,770,-1,2,0
0,3829,470,-1,2,0
0,3830,7470,1,2,0
0,3831,520,-1,2,0
0,3832,830,-1,2,0
0,3833,890,-1,2,0
0,3834,6060,-1,2,0
0,3835,4610,-1,2,0
0,3836,400,-1,2,0
0,3837,1820,-1,2,0
0,3838,2820,-1,2,0
0,3839,5040,-1,2,0
0,3840,2960,-1,2,0
0,3841,740,-1,2,0
0,3842,2370,-1,2,0
0,3843,830,-1,2,0
0,3844,5630,-1,2,0
0,3845,920,-1,2,0
0,3846,2710,-1,2,0
0,3847,3880,-1,2,0
0,3848,3880,-1,2,0
0,3849,3180,-1,2,0
0,3850,1840,-1,2,0
0,3851,1060,-1,2,0
0,3852,320,-1,2,0
0,3853,1920,-1,2,0
0,3854,2490,-1,2,0
0,3855,7580,-1,2,0
0,3856,480,-1,2,0
0,3857,500,-1,2,0
0,3858,1240,-1,2,0
0,3859,1510,1,2,0
0,3860,5010,-1,2,0
0,3861,490,-1,2,0
0,3862,960,-1,2,0
0,3863,910,-1,2,0
0,3864,4010,-1,2,0
0,3865,570,-1,2,0
0,3866,610,-1,2,0
0,3867,5040,-1,2,0
0,3868,940,-1,2,0
0,3869,1490,-1,2,0
0,3870,1960,-1,2,0
0,3871,1570,-1,2,0
0,3872,2570,1,2,0
0,3873,1670,-1,2,0
0,3874,1890,-1,2,0
0,3875,1580,-1,2,0
0,3876,410,-1,2,0
0,3877,410,1,2,0
0,3878,1650,1,2,0
0,3879,5350,1,2,0
0,3880,880,1,2,0
0,3881,980,-1,2,0
0,3882,5230,-1,2,0
0,3883,830,-1,2,0
0,3884,2020,-1,2,0
0,3885,1890,-1,2,0
0,3886,970,-1,2,0
0,3887,1400,-1,2,0
0,3888,680,-1,2,0
0,3889,860,-1,2,0
0,3890,3820,-1,2,0
0,3891,390,1,2,0
0,3892,2090,-1,2,0
0,3893,850,-1,2,0
0,3894,1710,1,2,0
0,3895,1140,-1,2,0
0,3896,2630,-1,2,0
0,3897,3370,-1,2,0
0,3898,1030,-1,2,0
0,3899,970,-1,2,0
0,3900,640,-1,2,0
0,3901,1430,-1,2,0
0,3902,620,-1,2,0
0,3903,560,-1,2,0
0,3904,4020,-1,2,0
0,3905,1170,-1,2,0
0,3906,1480,-1,2,0
0,3907,6170,-1,2,0
0,3908,830,-1,2,0
0,3909,1130,-1,2,0
0,3910,6400,-1,2,0
0,3911,1010,-1,2,0
0,3912,260,-1,2,0
0,3913,1750,1,2,0
0,3914,7090,-1,2,0
0,3915,2420,-1,2,0
0,3916,4840,-1,2,0
0,3917,2050,-1,2,0
0,3918,2710,-1,2,0
0,3919,600,1,2,0
0,3920,690,-1,2,0
0,3921,2340,-1,2,0
0,3922,3130,-1,2,0
0,3923,530,-1,2,0
0,3924,570,-1,2,0
0,3925,2090,-1,2,0
0,3926,1860,-1,2,0
0,3927,690,-1,2,0
0,3928,10670,-1,2,0
0,3929,5240,-1,2,0
0,3930,5400,-1,2,0
0,3931,440,-1,2,0
0,3932,920,-1,2,0
0,3933,4580,-1,2,0
0,3934,1250,-1,2,0
0,3935,2550,-1,2,0
0,3936,8010,-1,2,0
0,3937,1600,-1,2,0
0,3938,1850,1,2,0
0,3939,2800,-1,2,0
0,3940,660,-1,2,0
0,3941,1580,-1,2,0
0,3942,1000,-1,2,0
0,3943,3370,-1,2,0
0,3944,2730,-1,2,0
0,3945,1750,-1,2,0
0,3946,1310,-1,2,0
0,3947,440,-1,2,0
0,3948,520,1,2,0
0,3949,2910,-1,2,0
0,3950,940,-1,2,0
0,3951,520,-1,2,0
0,3952,780,-1,2,0
0,3953,1450,-1,2,0
0,3954,2770,1,2,0
0,3955,3750,-1,2,0
0,3956,3300,-1,2,0
0,3957,560,-1,2,0
0,3958,2220,-1,2,0
0,3959,3450,-1,2,0
0,3960,2210,-1,2,0
0,3961,1650,-1,2,0
0,3962,1900,-1,2,0
0,3963,2650,-1,2,0
0,3964,1260,1,2,0
0,3965,670,-1,2,0
0,3966,4280,-1,2,0
0,3967,2000,-1,2,0
0,3968,460,-1,2,0
0,3969,1850,1,2,0
0,3970,1520,-1,2,0
0,3971,2450,-1,2,0
0,3972,5950,-1,2,0
0,3973,6490,-1,2,0
0,3974,1500,-1,2,0
0,3975,910,-1,2,0
0,3976,2870,-1,2,0
0,3977,6530,-1,2,0
0,3978,900,-1,2,0
0,3979,990,-1,2,0
0,3980,4870,-1,2,0
0,3981,1710,-1,2,0
0,3982,4800,-1,2,0
0,3983,2460,-1,2,0
0,3984,2350,-1,2,0
0,3985,1390,-1,2,0
0,3986,670,-1,2,0
0,3987,1200,-1,2,0
0,3988,1940,-1,2,0
0,3989,1170,-1,2,0
0,3990,2610,-1,2,0
0,3991,3180,-1,2,0
0,3992,1410,-1,2,0
0,3993,1020,-1,2,0
0,3994,2080,-1,2,0
0,3995,490,-1,2,0
0,3996,800,-1,2,0
0,3997,1670,-1,2,0
0,3998,670,-1,2,0
0,3999,2750,-1,2,0
0,4000,2230,1,2,0
0,4001,1130,-1,2,0
0,4002,620,-1,2,0
0,4003,1350,-1,2,0
0,4004,2270,-1,2,0
0,4005,1110,-1,2,0
0,4006,2290,-1,2,0
0,4007,1760,-1,2,0
0,4008,1780,-1,2,0
0,4009,2540,-1,2,0
0,4010,3550,-1,2,0
0,4011,650,-1,2,0
0,4012,1020,-1,2,0
0,4013,1880,-1,2,0
0,4014,440,-1,2,0
0,4015,1150,-1,2,0
0,4016,2460,-1,2,0
0,4017,2340,-1,2,0
0,4018,4530,-1,2,0
0,4019,3260,-1,2,0
0,4020,930,-1,2,0
0,4021,840,-1,2,0
0,4022,1480,-1,2,0
0,4023,1510,-1,2,0
0,4024,3890,-1,2,0
0,4025,1780,-1,2,0
0,4026,870,-1,2,0
0,4027,2520,-1,2,0
0,4028,2430,-1,2,0
0,4029,750,-1,2,0
0,4030,1510,-1,2,0
0,4031,4480,-1,2,0
0,4032,2050,-1,2,0
0,4033,2910,-1,2,0
0,4034,3090,-1,2,0
0,4035,650,1,2,0
0,4036,1650,-1,2,0
0,4037,4080,-1,2,0
0,4038,2300,-1,2,0
0,4039,3500,-1,2,0
0,4040,1300,-1,2,0
0,4041,760,-1,2,0
0,4042,4050,-1,2,0
0,4043,1360,1,2,0
0,4044,4170,-1,2,0
0,4045,5230,-1,2,0
0,4046,2380,-1,2,0
0,4047,650,-1,2,0
0,4048,1540,-1,2,0
0,4049,2020,-1,2,0
0,4050,630,-1,2,0
0,4051,1540,-1,2,0
0,4052,2260,-1,2,0
0,4053,1850,-1,2,0
0,4054,1980,1,2,0
0,4055,1440,-1,2,0
0,4056,3020,-1,2,0
0,4057,2400,1,2,0
0,4058,640,-1,2,0
0,4059,5010,-1,2,0
0,4060,4820,1,2,0
0,4061,1880,-1,2,0
0,4062,2670,-1,2,0
0,4063,4560,-1,2,0
0,4064,1200,-1,2,0
0,4065,1790,-1,2,0
0,4066,4020,-1,2,0
0,4067,1980,-1,2,0
0,4068,890,-1,2,0
0,4069,1800,-1,2,0
0,4070,3310,1,2,0
0,4071,920,1,2,0
0,4072,930,-1,2,0
0,4073,2160,-1,2,0
0,4074,4290,-1,2,0
0,4075,1290,-1,2,0
0,4076,13980,-1,2,0
0,4077,1230,-1,2,0
0,4078,770,-1,2,0
0,4079,7150,1,2,0
0,4080,1540,-1,2,0
0,4081,2200,-1,2,0
0,4082,920,-1,2,0
0,4083,710,-1,2,0
0,4084,2550,-1,2,0
0,4085,2090,-1,2,0
0,4086,690,-1,2,0
0,4087,1210,-1,2,0
0,4088,2880,-1,2,0
0,4089,2050,-1,2,0
0,4090,890,1,2,0
0,4091,2090,-1,2,0
0,4092,2050,-1,2,0
0,4093,1780,1,2,0
0,4094,2110,1,2,0
0,4095,5260,-1,2,0
0,4096,2640,-1,2,0
0,4097,570,-1,2,0
0,4098,990,-1,2,0
0,4099,5230,-1,2,0
0,4100,1670,-1,2,0
0,4101,5640,1,2,0
0,4102,2210,-1,2,0
0,4103,640,-1,2,0
0,4104,1480,-1,2,0
0,4105,2100,-1,2,0
0,4106,1090,-1,2,0
0,4107,3060,-1,2,0
0,4108,820,-1,2,0
0,4109,1380,-1,2,0
0,4110,4270,-1,2,0
0,4111,1670,-1,2,0
0,4112,250,-1,2,0
0,4113,1360,1,2,0
0,4114,720,-1,2,0
0,4115,3670,-1,2,0
0,4116,650,-1,2,0
0,4117,440,-1,2,0
0,4118,5650,-1,2,0
0,4119,2130,-1,2,0
0,4120,990,-1,2,0
0,4121,2590,1,2,0
0,4122,5170,-1,2,0
0,4123,1500,-1,2,0
0,4124,1590,-1,2,0
0,4125,4280,-1,2,0
0,4126,2260,1,2,0
0,4127,2660,-1,2,0
0,4128,1030,-1,2,0
0,4129,1150,1,2,0
0,4130,1690,-1,2,0
0,4131,2430,-1,2,0
0,4132,3120,1,2,0
0,4133,1290,-1,2,0
0,4134,3060,-1,2,0
0,4135,970,-1,2,0
0,4136,3630,-1,2,0
0,4137,1150,-1,2,0
0,4138,750,-1,2,0
0,4139,1070,-1,2,0
0,4140,1550,-1,2,0
0,4141,690,-1,2,0
0,4142,480,-1,2,0
0,4143,2660,-1,2,0
0,4144,4110,-1,2,0
0,4145,1910,1,2,0
0,4146,710,1,2,0
0,4147,3400,-1,2,0
0,4148,1160,1,2,0
0,4149,910,-1,2,0
0,4150,1770,1,2,0
0,4151,920,-1,2,0
0,4152,1340,1,2,0
0,4153,540,1,2,0
0,4154,730,-1,2,0
0,4155,2240,1,2,0
0,4156,1130,-1,2,0
0,4157,790,-1,2,0
0,4158,630,-1,2,0
0,4159,380,-1,2,0
0,4160,210,1,2,0
0,4161,3690,-1,2,0
0,4162,1220,-1,2,0
0,4163,5760,-1,2,0
0,4164,2070,-1,2,0
0,4165,5980,-1,2,0
0,4166,830,-1,2,0
0,4167,3300,-1,2,0
0,4168,3030,-1,2,0
0,4169,520,-1,2,0
0,4170,1720,-1,2,0
0,4171,3070,-1,2,0
0,4172,1370,-1,2,0
0,4173,840,-1,2,0
0,4174,3470,-1,2,0
0,4175,520,-1,2,0
0,4176,2620,-1,2,0
0,4177,1280,-1,2,0
0,4178,6360,1,2,0
0,4179,950,-1,2,0
0,4180,2580,-1,2,0
0,4181,1440,-1,2,0
0,4182,1660,-1,2,0
0,4183,750,1,2,0
0,4184,1540,1,2,0
0,4185,5420,1,2,0
0,4186,750,-1,2,0
0,4187,4990,1,2,0
0,4188,6980,-1,2,0
0,4189,3930,-1,2,0
0,4190,2990,-1,2,0
0,4191,11250,-1,2,0
0,4192,1510,-1,2,0
0,4193,1630,-1,2,0
0,4194,450,-1,2,0
0,4195,2380,1,2,0
0,4196,290,-1,2,0
0,4197,4030,-1,2,0
0,4198,640,1,2,0
0,4199,2140,-1,2,0
0,4200,850,-1,2,1
0,4201,4730,-1,2,1
0,4202,4350,-1,2,1
0,4203,350,-1,2,1
0,4204,4370,-1,2,1
0,4205,3860,-1,2,1
0,4206,1800,-1,2,1
0,4207,2300,-1,2,1
0,4208,5290,1,2,1
0,4209,920,-1,2,1
0,4210,2780,-1,2,1
0,4211,850,-1,2,1
0,4212,1220,1,2,1
0,4213,2100,-1,2,1
0,4214,4200,1,2,1
0,4215,8180,-1,2,1
0,4216,2270,1,2,1
0,4217,1430,-1,2,1
0,4218,2710,-1,2,1
0,4219,1460,-1,2,1
0,4220,3810,-1,2,1
0,4221,1600,1,2,1
0,4222,4380,-1,2,1
0,4223,2970,-1,2,1
0,4224,1110,-1,2,1
0,4225,5960,-1,2,1
0,4226,4150,1,2,1
0,4227,1360,-1,2,1
0,4228,780,-1,2,1
0,4229,1110,-1,2,1
0,4230,790,-1,2,1
0,4231,570,-1,2,1
0,4232,1950,1,2,1
0,4233,6860,-1,2,1
0,4234,2800,-1,2,1
0,4235,740,-1,2,1
0,4236,460,1,2,1
0,4237,1950,-1,2,1
0,4238,1280,-1,2,1
0,4239,5110,-1,2,1
0,4240,500,-1,2,1
0,4241,550,-1,2,1
0,4242,5470,-1,2,1
0,4243,5580,-1,2,1
0,4244,3000,1,2,1
0,4245,2260,-1,2,1
0,4246,3800,-1,2,1
0,4247,4340,-1,2,1
0,4248,1720,-1,2,1
0,4249,980,1,2,1
0,4250,6290,-1,2,1
0,4251,2210,-1,2,1
0,4252,6660,-1,2,1
0,4253,1320,-1,2,1
0,4254,920,-1,2,1
0,4255,3260,-1,2,1
0,4256,3940,-1,2,1
0,4257,2130,1,2,1
0,4258,1160,1,2,1
0,4259,520,-1,2,1
0,4260,620,-1,2,1
0,4261,2850,-1,2,1
0,4262,2730,-1,2,1
0,4263,4710,-1,2,1
0,4264,1070,-1,2,1
0,4265,1120,-1,2,1
0,4266,2780,-1,2,1
0,4267,2460,-1,2,1
0,4268,1010,-1,2,1
0,4269,1090,-1,2,1
0,4270,410,-1,2,1
0,4271,7230,-1,2,1
0,4272,3060,-1,2,1
0,4273,1350,-1,2,1
0,4274,860,-1,2,1
0,4275,1750,-1,2,1
0,4276,1130,1,2,1
0,4277,2640,-1,2,1
0,4278,4400,-1,2,1
0,4279,290,-1,2,1
0,4280,1510,-1,2,1
0,4281,1070,-1,2,1
0,4282,400,-1,2,1
0,4283,3710,-1,2,1
0,4284,2570,-1,2,1
0,4285,2200,-1,2,1
0,4286,6820,-1,2,1
0,4287,850,-1,2,1
0,4288,1590,-1,2,1
0,4289,4370,-1,2,1
0,4290,3510,1,2,1
0,4291,1320,1,2,1
0,4292,2730,1,2,1
0,4293,5240,-1,2,1
0,4294,710,-1,2,1
0,4295,1940,-1,2,1
0,4296,5120,-1,2,1
0,4297,3010,1,2,1
0,4298,3990,1,2,1
0,4299,670,-1,2,1
0,4300,790,-1,2,1
0,4301,3360,-1,2,1
0,4302,690,-1,2,1
0,4303,7590,-1,2,1
0,4304,2580,-1,2,1
0,4305,1700,1,2,1
0,4306,2520,-1,2,1
0,4307,2310,1,2,1
0,4308,6260,1,2,1
0,4309,5050,-1,2,1
0,4310,4020,-1,2,1
0,4311,1170,-1,2,1
0,4312,7190,1,2,1
0,4313,5760,-1,2,1
0,4314,1380,1,2,1
0,4315,3070,-1,2,1
0,4316,460,1,2,1
0,4317,1100,-1,2,1
0,4318,1220,-1,2,1
0,4319,4120,-1,2,1
0,4320,1410,-1,2,1
0,4321,890,-1,2,1
0,4322,1920,1,2,1
0,4323,6140,1,2,1
0,4324,2160,-1,2,1
0,4325,880,1,2,1
0,4326,6220,1,2,1
0,4327,2900,-1,2,1
0,4328,1130,1,2,1
0,4329,990,-1,2,1
0,4330,3940,1,2,1
0,4331,1340,-1,2,1
0,4332,1350,-1,2,1
0,4333,3830,-1,2,1
0,4334,640,1,2,1
0,4335,2140,-1,2,1
0,4336,2880,-1,2,1
0,4337,550,-1,2,1
0,4338,430,-1,2,1
0,4339,2740,1,2,1
0,4340,900,-1,2,1
0,4341,770,-1,2,1
0,4342,1100,-1,2,1
0,4343,1590,-1,2,1
0,4344,1720,-1,2,1
0,4345,6000,-1,2,1
0,4346,3310,-1,2,1
0,4347,860,-1,2,1
0,4348,3380,1,2,1
0,4349,1400,-1,2,1
0,4350,4270,-1,2,1
0,4351,3300,1,2,1
0,4352,1100,1,2,1
0,4353,2600,-1,2,1
0,4354,2960,-1,2,1
0,4355,2000,-1,2,1
0,4356,270,-1,2,1
0,4357,710,-1,2,1
0,4358,6250,-1,2,1
0,4359,1740,-1,2,1
0,4360,3400,-1,2,1
0,4361,990,-1,2,1
0,4362,2800,-1,2,1
0,4363,1500,1,2,1
0,4364,11360,-1,2,1
0,4365,2890,-1,2,1
0,4366,2350,1,2,1
0,4367,1880,-1,2,1
0,4368,1170,-1,2,1
0,4369,2150,1,2,1
0,4370,2570,-1,2,1
0,4371,1160,1,2,1
0,4372,2000,1,2,1
0,4373,1510,-1,2,1
0,4374,1690,-1,2,1
0,4375,930,-1,2,1
0,4376,950,-1,2,1
0,4377,1310,1,2,1
0,4378,720,-1,2,1
0,4379,4810,-1,2,1
0,4380,1710,-1,2,1
0,4381,2100,1,2,1
0,4382,3730,1,2,1
0,4383,850,-1,2,1
0,4384,2270,-1,2,1
0,4385,1940,-1,2,1
0,4386,800,1,2,1
0,4387,3280,-1,2,1
0,4388,340,-1,2,1
0,4389,1220,-1,2,1
0,4390,1250,1,2,1
0,4391,3940,-1,2,1
0,4392,3600,1,2,1
0,4393,3120,-1,2,1
0,4394,2470,-1,2,1
0,4395,700,1,2,1
0,4396,3240,1,2,1
0,4397,1930,-1,2,1
0,4398,1260,1,2,1
0,4399,3410,-1,2,1
0,4400,2470,-1,2,1
0,4401,2050,-1,2,1
0,4402,890,-1,2,1
0,4403,5790,-1,2,1
0,4404,3370,1,2,1
0,4405,3050,-1,2,1
0,4406,3180,-1,2,1
0,4407,1470,1,2,1
0,4408,1250,-1,2,1
0,4409,1150,-1,2,1
0,4410,1130,-1,2,1
0,4411,6440,-1,2,1
0,4412,1130,-1,2,1
0,4413,1780,-1,2,1
0,4414,2110,-1,2,1
0,4415,1900,-1,2,1
0,4416,4400,1,2,1
0,4417,2850,-1,2,1
0,4418,520,-1,2,1
0,4419,3190,1,2,1
0,4420,1280,1,2,1
0,4421,1010,-1,2,1
0,4422,840,1,2,1
0,4423,5890,-1,2,1
0,4424,4700,1,2,1
0,4425,1170,1,2,1
0,4426,2720,-1,2,1
0,4427,2010,-1,2,1
0,4428,4580,-1,2,1
0,4429,1770,-1,2,1
0,4430,1240,-1,2,1
0,4431,1240,-1,2,1
0,4432,1820,-1,2,1
0,4433,5410,-1,2,1
0,4434,5230,-1,2,1
0,4435,3470,-1,2,1
0,4436,5670,1,2,1
0,4437,1210,-1,2,1
0,4438,2780,-1,2,1
0,4439,3550,1,2,1
0,4440,470,-1,2,1
0,4441,3910,-1,2,1
0,4442,3480,-1,2,1
0,4443,3860,1,2,1
0,4444,4280,-1,2,1
0,4445,2630,-1,2,1
0,4446,1100,1,2,1
0,4447,1780,1,2,1
0,4448,7440,-1,2,1
0,4449,1230,1,2,1
0,4450,1550,-1,2,1
0,4451,2110,1,2,1
0,4452,1000,-1,2,1
0,4453,1490,-1,2,1
0,4454,950,-1,2,1
0,4455,600,-1,2,1
0,4456,4670,-1,2,1
0,4457,560,1,2,1
0,4458,1080,1,2,1
0,4459,2370,-1,2,1
0,4460,900,1,2,1
0,4461,1460,-1,2,1
0,4462,1670,1,2,1
0,4463,610,-1,2,1
0,4464,1960,-1,2,1
0,4465,11020,-1,2,1
0,4466,1020,-1,2,1
0,4467,620,-1,2,1
0,4468,4390,1,2,1
0,4469,2100,-1,2,1
0,4470,4210,-1,2,1
0,4471,3510,-1,2,1
0,4472,410,-1,2,1
0,4473,2100,1,2,1
0,4474,2470,-1,2,1
0,4475,370,-1,2,1
0,4476,5770,1,2,1
0,4477,1530,-1,2,1
0,4478,1590,-1,2,1
0,4479,1430,1,2,1
0,4480,2620,-1,2,1
0,4481,970,-1,2,1
0,4482,680,-1,2,1
0,4483,6040,-1,2,1
0,4484,1130,-1,2,1
0,4485,830,1,2,1
0,4486,2870,-1,2,1
0,4487,660,-1,2,1
0,4488,3450,-1,2,1
0,4489,2840,1,2,1
0,4490,3180,-1,2,1
0,4491,6720,-1,2,1
0,4492,2300,1,2,1
0,4493,3770,1,2,1
0,4494,1800,1,2,1
0,4495,2140,1,2,1
0,4496,490,-1,2,1
0,4497,2150,-1,2,1
0,4498,1530,-1,2,1
0,4499,1140,1,2,1
0,4500,710,-1,2,1
0,4501,610,-1,2,1
0,4502,770,-1,2,1
0,4503,2720,-1,2,1
0,4504,5420,-1,2,1
0,4505,1420,-1,2,1
0,4506,1040,-1,2,1
0,4507,2310,-1,2,1
0,4508,570,-1,2,1
0,4509,1990,-1,2,1
0,4510,2600,-1,2,1
0,4511,2110,-1,2,1
0,4512,810,-1,2,1
0,4513,620,-1,2,1
0,4514,2340,1,2,1
0,4515,8830,-1,2,1
0,4516,2450,-1,2,1
0,4517,3210,1,2,1
0,4518,5520,1,2,1
0,4519,1280,-1,2,1
0,4520,2360,-1,2,1
0,4521,1620,-1,2,1
0,4522,1510,-1,2,1
0,4523,1710,-1,2,1
0,4524,5820,-1,2,1
0,4525,2500,-1,2,1
0,4526,680,-1,2,1
0,4527,4390,-1,2,1
0,4528,2150,-1,2,1
0,4529,640,1,2,1
0,4530,770,-1,2,1
0,4531,870,1,2,1
0,4532,1720,-1,2,1
0,4533,9750,-1,2,1
0,4534,1310,-1,2,1
0,4535,1750,1,2,1
0,4536,600,-1,2,1
0,4537,2720,-1,2,1
0,4538,3040,1,2,1
0,4539,1250,1,2,1
0,4540,2850,-1,2,1
0,4541,3020,1,2,1
0,4542,1690,-1,2,1
0,4543,4360,1,2,1
0,4544,4980,-1,2,1
0,4545,1160,1,2,1
0,4546,5220,-1,2,1
0,4547,4260,-1,2,1
0,4548,3100,-1,2,1
0,4549,7360,-1,2,1
0,4550,2070,-1,2,1
0,4551,4630,1,2,1
0,4552,2200,-1,2,1
0,4553,1580,-1,2,1
0,4554,2070,-1,2,1
0,4555,1930,1,2,1
0,4556,2490,-1,2,1
0,4557,4320,-1,2,1
0,4558,760,-1,2,1
0,4559,3190,-1,2,1
0,4560,1870,1,2,1
0,4561,2840,-1,2,1
0,4562,1580,1,2,1
0,4563,1240,-1,2,1
0,4564,8150,-1,2,1
0,4565,1850,-1,2,1
0,4566,1490,1,2,1
0,4567,5590,-1,2,1
0,4568,1950,-1,2,1
0,4569,4800,-1,2,1
0,4570,4630,-1,2,1
0,4571,2320,-1,2,1
0,4572,3440,-1,2,1
0,4573,3550,-1,2,1
0,4574,3580,-1,2,1
0,4575,810,-1,2,1
0,4576,1980,1,2,1
0,4577,700,-1,2,1
0,4578,1530,1,2,1
0,4579,1940,1,2,1
0,4580,530,-1,2,1
0,4581,420,-1,2,1
0,4582,2850,-1,2,1
0,4583,680,-1,2,1
0,4584,1640,-1,2,1
0,4585,6200,1,2,1
0,4586,8100,1,2,1
0,4587,7460,-1,2,1
0,4588,840,-1,2,1
0,4589,2990,1,2,1
0,4590,860,-1,2,1
0,4591,5450,-1,2,1
0,4592,1600,1,2,1
0,4593,2320,-1,2,1
0,4594,3240,-1,2,1
0,4595,1150,1,2,1
0,4596,2230,-1,2,1
0,4597,850,-1,2,1
0,4598,890,-1,2,1
0,4599,1330,-1,2,1
0,4600,1200,-1,2,1
0,4601,1470,-1,2,1
0,4602,3590,1,2,1
0,4603,4380,1,2,1
0,4604,4660,-1,2,1
0,4605,4320,1,2,1
0,4606,1730,1,2,1
0,4607,1070,-1,2,1
0,4608,6760,-1,2,1
0,4609,1860,-1,2,1
0,4610,980,-1,2,1
0,4611,1170,-1,2,1
0,4612,2490,-1,2,1
0,4613,960,-1,2,1
0,4614,1620,-1,2,1
0,4615,490,-1,2,1
0,4616,2080,1,2,1
0,4617,2200,1,2,1
0,4618,710,-1,2,1
0,4619,3020,1,2,1
0,4620,2520,1,2,1
0,4621,1500,-1,2,1
0,4622,3980,-1,2,1
0,4623,1830,-1,2,1
0,4624,6010,-1,2,1
0,4625,1790,-1,2,1
0,4626,360,1,2,1
0,4627,1070,1,2,1
0,4628,990,-1,2,1
0,4629,2820,1,2,1
0,4630,4930,-1,2,1
0,4631,1930,1,2,1
0,4632,2740,-1,2,1
0,4633,7010,-1,2,1
0,4634,830,-1,2,1
0,4635,5800,1,2,1
0,4636,4770,-1,2,1
0,4637,1830,-1,2,1
0,4638,6930,-1,2,1
0,4639,6170,-1,2,1
0,4640,2150,-1,2,1
0,4641,5040,-1,2,1
0,4642,2560,1,2,1
0,4643,2430,-1,2,1
0,4644,1890,1,2,1
0,4645,600,-1,2,1
0,4646,810,-1,2,1
0,4647,690,-1,2,1
0,4648,1470,1,2,1
0,4649,5030,1,2,1
0,4650,8530,-1,2,1
0,4651,3750,-1,2,1
0,4652,950,-1,2,1
0,4653,2980,-1,2,1
0,4654,1290,1,2,1
0,4655,2400,1,2,1
0,4656,1330,-1,2,1
0,4657,3140,-1,2,1
0,4658,4330,-1,2,1
0,4659,2700,-1,2,1
0,4660,4120,-1,2,1
0,4661,5370,-1,2,1
0,4662,2940,-1,2,1
0,4663,960,-1,2,1
0,4664,2160,-1,2,1
0,4665,1700,-1,2,1
0,4666,2650,-1,2,1
0,4667,2580,-1,2,1
0,4668,1790,1,2,1
0,4669,3300,-1,2,1
0,4670,2830,-1,2,1
0,4671,3770,-1,2,1
0,4672,280,-1,2,1
0,4673,2190,-1,2,1
0,4674,1310,1,2,1
0,4675,1100,-1,2,1
0,4676,830,1,2,1
0,4677,1930,-1,2,1
0,4678,4590,-1,2,1
0,4679,960,1,2,1
0,4680,690,-1,2,1
0,4681,3980,1,2,1
0,4682,2720,-1,2,1
0,4683,310,-1,2,1
0,4684,3680,1,2,1
0,4685,6040,-1,2,1
0,4686,1440,-1,2,1
0,4687,990,-1,2,1
0,4688,2740,1,2,1
0,4689,840,-1,2,1
0,4690,1560,-1,2,1
0,4691,840,-1,2,1
0,4692,370,1,2,1
0,4693,2280,-1,2,1
0,4694,3560,-1,2,1
0,4695,1190,-1,2,1
0,4696,2250,1,2,1
0,4697,3840,1,2,1
0,4698,1230,-1,2,1
0,4699,2770,-1,2,1
0,4700,2880,-1,2,1
0,4701,760,1,2,1
0,4702,4110,-1,2,1
0,4703,960,-1,2,1
0,4704,6750,-1,2,1
0,4705,3300,-1,2,1
0,4706,3300,-1,2,1
0,4707,2050,1,2,1
0,4708,940,-1,2,1
0,4709,960,-1,2,1
0,4710,3440,1,2,1
0,4711,1450,-1,2,1
0,4712,3890,-1,2,1
0,4713,1080,-1,2,1
0,4714,6080,1,2,1
0,4715,6050,1,2,1
0,4716,7240,-1,2,1
0,4717,3510,-1,2,1
0,4718,1030,-1,2,1
0,4719,2250,-1,2,1
0,4720,390,-1,2,1
0,4721,5520,-1,2,1
0,4722,2710,-1,2,1
0,4723,2840,1,2,1
0,4724,2270,-1,2,1
0,4725,920,-1,2,1
0,4726,4240,-1,2,1
0,4727,830,1,2,1
0,4728,2580,-1,2,1
0,4729,1320,1,2,1
0,4730,5160,1,2,1
0,4731,2330,-1,2,1
0,4732,3880,1,2,1
0,4733,290,-1,2,1
0,4734,3250,-1,2,1
0,4735,7540,-1,2,1
0,4736,2310,1,2,1
0,4737,1040,-1,2,1
0,4738,2800,1,2,1
0,4739,790,-1,2,1
0,4740,3320,-1,2,1
0,4741,1460,-1,2,1
0,4742,2090,1,2,1
0,4743,6290,-1,2,1
0,4744,1210,-1,2,1
0,4745,2840,-1,2,1
0,4746,730,-1,2,1
0,4747,2130,1,2,1
0,4748,1380,-1,2,1
0,4749,770,-1,2,1
0,4750,1820,-1,2,1
0,4751,2830,-1,2,1
0,4752,2060,1,2,1
0,4753,2200,-1,2,1
0,4754,2970,-1,2,1
0,4755,2400,-1,2,1
0,4756,2870,-1,2,1
0,4757,1070,-1,2,1
0,4758,440,-1,2,1
0,4759,2060,1,2,1
0,4760,2620,-1,2,1
0,4761,1780,1,2,1
0,4762,4970,1,2,1
0,4763,3370,-1,2,1
0,4764,1220,-1,2,1
0,4765,9540,1,2,1
0,4766,1450,1,2,1
0,4767,970,-1,2,1
0,4768,4970,1,2,1
0,4769,4310,-1,2,1
0,4770,2310,1,2,1
0,4771,3950,-1,2,1
0,4772,1720,-1,2,1
0,4773,730,-1,2,1
0,4774,1440,-1,2,1
0,4775,5580,-1,2,1
0,4776,810,1,2,1
0,4777,1310,-1,2,1
0,4778,5630,-1,2,1
0,4779,5660,-1,2,1
0,4780,1380,-1,2,1
0,4781,7800,-1,2,1
0,4782,770,-1,2,1
0,4783,1530,-1,2,1
0,4784,5210,1,2,1
0,4785,3030,-1,2,1
0,4786,1270,-1,2,1
0,4787,2070,-1,2,1
0,4788,2400,1,2,1
0,4789,3640,1,2,1
0,4790,2890,-1,2,1
0,4791,3750,1,2,1
0,4792,570,-1,2,1
0,4793,1360,1,2,1
0,4794,3870,-1,2,1
0,4795,2290,-1,2,1
0,4796,2470,-1,2,1
0,4797,3690,-1,2,1
0,4798,3930,-1,2,1
0,4799,490,-1,2,1
0,4800,3550,1,2,2
0,4801,820,-1,2,2
0,4802,4390,-1,2,2
0,4803,550,1,2,2
0,4804,3390,-1,2,2
0,4805,3750,1,2,2
0,4806,770,1,2,2
0,4807,2600,-1,2,2
0,4808,1540,1,2,2
0,4809,820,-1,2,2
0,4810,2370,1,2,2
0,4811,1850,1,2,2
0,4812,1860,-1,2,2
0,4813,6200,-1,2,2
0,4814,1480,1,2,2
0,4815,970,-1,2,2
0,4816,1170,1,2,2
0,4817,3560,-1,2,2
0,4818,1550,1,2,2
0,4819,3750,1,2,2
0,4820,6230,-1,2,2
0,4821,2770,1,2,2
0,4822,2150,1,2,2
0,4823,1390,-1,2,2
0,4824,820,1,2,2
0,4825,1240,1,2,2
0,4826,2620,1,2,2
0,4827,470,-1,2,2
0,4828,11670,-1,2,2
0,4829,4280,-1,2,2
0,4830,3560,-1,2,2
0,4831,4020,-1,2,2
0,4832,1930,-1,2,2
0,4833,2050,-1,2,2
0,4834,880,1,2,2
0,4835,2160,1,2,2
0,4836,750,1,2,2
0,4837,2160,1,2,2
0,4838,1590,-1,2,2
0,4839,1090,1,2,2
0,4840,1400,1,2,2
0,4841,2050,-1,2,2
0,4842,4540,-1,2,2
0,4843,5550,1,2,2
0,4844,1590,1,2,2
0,4845,1930,1,2,2
0,4846,1910,1,2,2
0,4847,800,-1,2,2
0,4848,1120,1,2,2
0,4849,2080,-1,2,2
0,4850,3130,-1,2,2
0,4851,1460,1,2,2
0,4852,4050,1,2,2
0,4853,4690,-1,2,2
0,4854,1240,-1,2,2
0,4855,1750,1,2,2
0,4856,10460,-1,2,2
0,4857,2810,1,2,2
0,4858,4060,-1,2,2
0,4859,1030,-1,2,2
0,4860,760,1,2,2
0,4861,3510,-1,2,2
0,4862,2650,-1,2,2
0,4863,830,-1,2,2
0,4864,330,-1,2,2
0,4865,3880,-1,2,2
0,4866,3390,1,2,2
0,4867,4250,-1,2,2
0,4868,5640,-1,2,2
0,4869,4370,1,2,2
0,4870,3190,-1,2,2
0,4871,450,1,2,2
0,4872,2660,-1,2,2
0,4873,5080,-1,2,2
0,4874,3140,1,2,2
0,4875,9910,1,2,2
0,4876,930,-1,2,2
0,4877,4040,-1,2,2
0,4878,3110,1,2,2
0,4879,1750,-1,2,2
0,4880,2470,-1,2,2
0,4881,1580,-1,2,2
0,4882,1710,1,2,2
0,4883,2750,-1,2,2
0,4884,2820,-1,2,2
0,4885,8640,1,2,2
0,4886,8360,-1,2,2
0,4887,1800,-1,2,2
0,4888,770,-1,2,2
0,4889,5480,-1,2,2
0,4890,4990,1,2,2
0,4891,1160,-1,2,2
0,4892,3250,1,2,2
0,4893,5120,-1,2,2
0,4894,950,-1,2,2
0,4895,3090,-1,2,2
0,4896,2170,1,2,2
0,4897,680,-1,2,2
0,4898,4010,1,2,2
0,4899,1650,1,2,2
0,4900,750,-1,2,2
0,4901,2210,-1,2,2
0,4902,6430,-1,2,2
0,4903,5090,-1,2,2
0,4904,780,1,2,2
0,4905,1200,-1,2,2
0,4906,520,1,2,2
0,4907,660,-1,2,2
0,4908,6260,-1,2,2
0,4909,2070,1,2,2
0,4910,1080,-1,2,2
0,4911,3660,-1,2,2
0,4912,3480,1,2,2
0,4913,3300,1,2,2
0,4914,1400,-1,2,2
0,4915,810,1,2,2
0,4916,5170,-1,2,2
0,4917,920,1,2,2
0,4918,1820,1,2,2
0,4919,700,1,2,2
0,4920,770,-1,2,2
0,4921,2790,1,2,2
0,4922,8940,-1,2,2
0,4923,3120,-1,2,2
0,4924,6890,-1,2,2
0,4925,1490,-1,2,2
0,4926,9630,-1,2,2
0,4927,1920,-1,2,2
0,4928,4500,-1,2,2
0,4929,2080,-1,2,2
0,4930,1880,1,2,2
0,4931,5250,-1,2,2
0,4932,7130,1,2,2
0,4933,3410,-1,2,2
0,4934,740,1,2,2
0,4935,4160,-1,2,2
0,4936,1330,1,2,2
0,4937,2790,-1,2,2
0,4938,1370,1,2,2
0,4939,310,-1,2,2
0,4940,3940,-1,2,2
0,4941,800,-1,2,2
0,4942,1850,1,2,2
0,4943,1110,-1,2,2
0,4944,500,-1,2,2
0,4945,570,-1,2,2
0,4946,590,-1,2,2
0,4947,2940,-1,2,2
0,4948,1020,1,2,2
0,4949,1000,-1,2,2
0,4950,1580,1,2,2
0,4951,2240,-1,2,2
0,4952,1660,-1,2,2
0,4953,640,1,2,2
0,4954,3610,-1,2,2
0,4955,530,-1,2,2
0,4956,2220,-1,2,2
0,4957,810,-1,2,2
0,4958,1790,1,2,2
0,4959,3270,1,2,2
0,4960,4310,1,2,2
0,4961,6970,-1,2,2
0,4962,1760,-1,2,2
0,4963,1120,1,2,2
0,4964,1220,-1,2,2
0,4965,2840,1,2,2
0,4966,390,-1,2,2
0,4967,690,1,2,2
0,4968,1230,1,2,2
0,4969,1000,1,2,2
0,4970,880,-1,2,2
0,4971,5170,-1,2,2
0,4972,4340,-1,2,2
0,4973,2310,-1,2,2
0,4974,2300,1,2,2
0,4975,740,-1,2,2
0,4976,8560,-1,2,2
0,4977,2880,1,2,2
0,4978,3370,-1,2,2
0,4979,4140,1,2,2
0,4980,3240,-1,2,2
0,4981,1410,1,2,2
0,4982,1200,1,2,2
0,4983,4130,-1,2,2
0,4984,510,-1,2,2
0,4985,2640,-1,2,2
0,4986,760,-1,2,2
0,4987,1120,-1,2,2
0,4988,400,-1,2,2
0,4989,2980,1,2,2
0,4990,10810,1,2,2
0,4991,3220,1,2,2
0,4992,1720,-1,2,2
0,4993,1890,1,2,2
0,4994,800,-1,2,2
0,4995,3020,-1,2,2
0,4996,4760,-1,2,2
0,4997,1930,-1,2,2
0,4998,2430,1,2,2
0,4999,4310,-1,2,2
0,5000,1010,-1,2,2
0,5001,3840,-1,2,2
0,5002,2720,-1,2,2
0,5003,1300,-1,2,2
0,5004,1700,-1,2,2
0,5005,3700,1,2,2
0,5006,900,-1,2,2
0,5007,1680,1,2,2
0,5008,1360,1,2,2
0,5009,1840,1,2,2
0,5010,1170,-1,2,2
0,5011,2960,-1,2,2
0,5012,6750,1,2,2
0,5013,960,1,2,2
0,5014,2840,1,2,2
0,5015,880,1,2,2
0,5016,580,-1,2,2
0,5017,1880,-1,2,2
0,5018,750,-1,2,2
0,5019,4260,1,2,2
0,5020,1490,-1,2,2
0,5021,460,1,2,2
0,5022,1960,1,2,2
0,5023,1920,1,2,2
0,5024,1500,1,2,2
0,5025,1680,1,2,2
0,5026,3810,1,2,2
0,5027,3480,1,2,2
0,5028,4070,1,2,2
0,5029,1930,1,2,2
0,5030,4520,-1,2,2
0,5031,3540,-1,2,2
0,5032,3540,1,2,2
0,5033,1140,-1,2,2
0,5034,650,-1,2,2
0,5035,790,-1,2,2
0,5036,1460,-1,2,2
0,5037,4490,-1,2,2
0,5038,460,-1,2,2
0,5039,4080,-1,2,2
0,5040,1830,-1,2,2
0,5041,260,-1,2,2
0,5042,320,1,2,2
0,5043,3920,1,2,2
0,5044,740,1,2,2
0,5045,2730,-1,2,2
0,5046,1060,-1,2,2
0,5047,2950,-1,2,2
0,5048,1140,1,2,2
0,5049,1470,-1,2,2
0,5050,820,-1,2,2
0,5051,2450,1,2,2
0,5052,2260,1,2,2
0,5053,940,-1,2,2
0,5054,4870,-1,2,2
0,5055,1630,-1,2,2
0,5056,330,-1,2,2
0,5057,280,-1,2,2
0,5058,890,-1,2,2
0,5059,920,-1,2,2
0,5060,370,-1,2,2
0,5061,4430,-1,2,2
0,5062,1670,-1,2,2
0,5063,3690,1,2,2
0,5064,2720,-1,2,2
0,5065,1520,-1,2,2
0,5066,1970,-1,2,2
0,5067,810,-1,2,2
0,5068,1390,-1,2,2
0,5069,1590,1,2,2
0,5070,2140,1,2,2
0,5071,3990,-1,2,2
0,5072,6410,-1,2,2
0,5073,3310,-1,2,2
0,5074,1360,1,2,2
0,5075,4260,1,2,2
0,5076,5670,-1,2,2
0,5077,4030,-1,2,2
0,5078,830,-1,2,2
0,5079,2120,-1,2,2
0,5080,2610,1,2,2
0,5081,1520,1,2,2
0,5082,1340,1,2,2
0,5083,4890,1,2,2
0,5084,4780,1,2,2
0,5085,1660,1,2,2
0,5086,2530,1,2,2
0,5087,2040,-1,2,2
0,5088,2950,-1,2,2
0,5089,720,1,2,2
0,5090,2660,-1,2,2
0,5091,2890,-1,2,2
0,5092,900,-1,2,2
0,5093,1430,-1,2,2
0,5094,1150,1,2,2
0,5095,4200,1,2,2
0,5096,8750,1,2,2
0,5097,3960,-1,2,2
0,5098,2470,1,2,2
0,5099,2710,1,2,2
0,5100,2210,1,2,3
0,5101,5810,1,2,3
0,5102,700,-1,2,3
0,5103,5780,-1,2,3
0,5104,2150,1,2,3
0,5105,1640,-1,2,3
0,5106,1750,1,2,3
0,5107,940,1,2,3
0,5108,2260,-1,2,3
0,5109,930,1,2,3
0,5110,2270,-1,2,3
0,5111,1940,1,2,3
0,5112,4470,1,2,3
0,5113,5210,1,2,3
0,5114,3610,1,2,3
0,5115,2910,-1,2,3
0,5116,700,1,2,3
0,5117,5550,1,2,3
0,5118,5470,1,2,3
0,5119,750,1,2,3
0,5120,980,-1,2,3
0,5121,4670,-1,2,3
0,5122,4320,1,2,3
0,5123,4520,-1,2,3
0,5124,2970,1,2,3
0,5125,4660,1,2,3
0,5126,1370,1,2,3
0,5127,1470,1,2,3
0,5128,2230,1,2,3
0,5129,3240,-1,2,3
0,5130,6410,1,2,3
0,5131,2150,1,2,3
0,5132,3470,1,2,3
0,5133,3900,1,2,3
0,5134,630,-1,2,3
0,5135,1050,1,2,3
0,5136,3080,-1,2,3
0,5137,4000,-1,2,3
0,5138,2790,-1,2,3
0,5139,1970,-1,2,3
0,5140,2890,-1,2,3
0,5141,2950,1,2,3
0,5142,420,1,2,3
0,5143,540,1,2,3
0,5144,3040,-1,2,3
0,5145,1430,-1,2,3
0,5146,1160,1,2,3
0,5147,6830,1,2,3
0,5148,2690,1,2,3
0,5149,3680,1,2,3
0,5150,3170,-1,2,3
0,5151,540,1,2,3
0,5152,1360,1,2,3
0,5153,3200,1,2,3
0,5154,1410,1,2,3
0,5155,1590,-1,2,3
0,5156,1990,1,2,3
0,5157,1960,-1,2,3
0,5158,1140,1,2,3
0,5159,1290,-1,2,3
0,5160,2290,1,2,3
0,5161,2370,1,2,3
0,5162,1230,1,2,3
0,5163,1120,-1,2,3
0,5164,490,-1,2,3
0,5165,3880,1,2,3
0,5166,1170,-1,2,3
0,5167,2250,1,2,3
0,5168,1480,1,2,3
0,5169,5250,1,2,3
0,5170,2140,1,2,3
0,5171,430,-1,2,3
0,5172,7660,1,2,3
0,5173,3930,1,2,3
0,5174,1490,1,2,3
0,5175,4260,1,2,3
0,5176,1550,1,2,3
0,5177,1090,1,2,3
0,5178,3920,-1,2,3
0,5179,1570,1,2,3
0,5180,4960,-1,2,3
0,5181,880,1,2,3
0,5182,490,1,2,3
0,5183,3360,1,2,3
0,5184,390,-1,2,3
0,5185,720,-1,2,3
0,5186,2540,1,2,3
0,5187,620,1,2,3
0,5188,1120,1,2,3
0,5189,1040,1,2,3
0,5190,580,1,2,3
0,5191,4290,-1,2,3
0,5192,2580,-1,2,3
0,5193,450,-1,2,3
0,5194,1880,1,2,3
0,5195,2430,1,2,3
0,5196,1110,-1,2,3
0,5197,500,-1,2,3
0,5198,1150,-1,2,3
0,5199,1810,-1,2,3
0,5200,3760,1,2,3
0,5201,1730,1,2,3
0,5202,3100,1,2,3
0,5203,3630,-1,2,3
0,5204,2380,1,2,3
0,5205,3590,1,2,3
0,5206,1720,-1,2,3
0,5207,3640,-1,2,3
0,5208,6380,1,2,3
0,5209,1150,-1,2,3
0,5210,2060,1,2,3
0,5211,320,1,2,3
0,5212,1900,1,2,3
0,5213,1750,1,2,3
0,5214,830,1,2,3
0,5215,1420,-1,2,3
0,5216,3950,1,2,3
0,5217,990,-1,2,3
0,5218,1210,1,2,3
0,5219,8890,1,2,3
0,5220,1280,1,2,3
0,5221,2130,-1,2,3
0,5222,3270,-1,2,3
0,5223,3260,1,2,3
0,5224,5270,-1,2,3
0,5225,2930,1,2,3
0,5226,1480,1,2,3
0,5227,4100,1,2,3
0,5228,2800,1,2,3
0,5229,2330,1,2,3
0,5230,1000,-1,2,3
0,5231,1840,-1,2,3
0,5232,2750,-1,2,3
0,5233,5300,1,2,3
0,5234,710,-1,2,3
0,5235,590,-1,2,3
0,5236,950,1,2,3
0,5237,420,-1,2,3
0,5238,3660,1,2,3
0,5239,1830,1,2,3
0,5240,1980,1,2,3
0,5241,3180,-1,2,3
0,5242,5180,1,2,3
0,5243,2660,-1,2,3
0,5244,2740,-1,2,3
0,5245,3930,1,2,3
0,5246,1790,1,2,3
0,5247,3580,1,2,3
0,5248,1710,1,2,3
0,5249,1560,1,2,3
0,5250,2000,-1,2,3
0,5251,1760,-1,2,3
0,5252,3860,1,2,3
0,5253,1910,1,2,3
0,5254,1370,1,2,3
0,5255,6950,-1,2,3
0,5256,500,1,2,3
0,5257,2250,1,2,3
0,5258,490,1,2,3
0,5259,2000,1,2,3
0,5260,1090,1,2,3
0,5261,2270,1,2,3
0,5262,1270,1,2,3
0,5263,2760,-1,2,3
0,5264,970,-1,2,3
0,5265,1200,-1,2,3
0,5266,4510,1,2,3
0,5267,1890,1,2,3
0,5268,630,-1,2,3
0,5269,4860,1,2,3
0,5270,2760,-1,2,3
0,5271,3950,1,2,3
0,5272,1520,1,2,3
0,5273,1340,1,2,3
0,5274,870,1,2,3
0,5275,4310,1,2,3
0,5276,780,-1,2,3
0,5277,1240,1,2,3
0,5278,890,-1,2,3
0,5279,520,-1,2,3
0,5280,4290,-1,2,3
0,5281,1800,1,2,3
0,5282,970,1,2,3
0,5283,3400,1,2,3
0,5284,3610,-1,2,3
0,5285,3060,-1,2,3
0,5286,5970,-1,2,3
0,5287,910,-1,2,3
0,5288,690,-1,2,3
0,5289,1490,1,2,3
0,5290,720,-1,2,3
0,5291,3930,1,2,3
0,5292,3860,1,2,3
0,5293,4580,-1,2,3
0,5294,5290,-1,2,3
0,5295,820,-1,2,3
0,5296,680,-1,2,3
0,5297,2000,-1,2,3
0,5298,2860,-1,2,3
0,5299,1020,1,2,3
0,5300,2670,1,2,3
0,5301,2650,1,2,3
0,5302,2880,-1,2,3
0,5303,540,1,2,3
0,5304,850,-1,2,3
0,5305,3300,-1,2,3
0,5306,2380,1,2,3
0,5307,790,1,2,3
0,5308,1590,-1,2,3
0,5309,730,-1,2,3
0,5310,1340,1,2,3
0,5311,9110,1,2,3
0,5312,2300,-1,2,3
0,5313,520,1,2,3
0,5314,9570,1,2,3
0,5315,3490,1,2,3
0,5316,7430,1,2,3
0,5317,590,-1,2,3
0,5318,7190,1,2,3
0,5319,910,1,2,3
0,5320,630,1,2,3
0,5321,1620,1,2,3
0,5322,1990,-1,2,3
0,5323,1540,1,2,3
0,5324,590,-1,2,3
0,5325,1210,-1,2,3
0,5326,770,-1,2,3
0,5327,2340,-1,2,3
0,5328,2280,-1,2,3
0,5329,4490,1,2,3
0,5330,3850,1,2,3
0,5331,440,1,2,3
0,5332,2070,1,2,3
0,5333,2020,1,2,3
0,5334,1470,1,2,3
0,5335,670,1,2,3
0,5336,450,1,2,3
0,5337,1140,-1,2,3
0,5338,3920,1,2,3
0,5339,9980,1,2,3
0,5340,1170,1,2,3
0,5341,5670,1,2,3
0,5342,3550,1,2,3
0,5343,1700,1,2,3
0,5344,8890,-1,2,3
0,5345,1760,1,2,3
0,5346,770,-1,2,3
0,5347,1520,1,2,3
0,5348,3290,-1,2,3
0,5349,1920,1,2,3
0,5350,1320,1,2,3
0,5351,2100,1,2,3
0,5352,1070,-1,2,3
0,5353,5700,1,2,3
0,5354,2180,-1,2,3
0,5355,3460,-1,2,3
0,5356,4680,1,2,3
0,5357,1370,1,2,3
0,5358,1110,1,2,3
0,5359,3890,1,2,3
0,5360,3580,1,2,3
0,5361,810,1,2,3
0,5362,650,-1,2,3
0,5363,1230,-1,2,3
0,5364,1660,-1,2,3
0,5365,4510,1,2,3
0,5366,2040,-1,2,3
0,5367,4380,1,2,3
0,5368,820,-1,2,3
0,5369,2020,-1,2,3
0,5370,3640,1,2,3
0,5371,4160,1,2,3
0,5372,1060,-1,2,3
0,5373,850,1,2,3
0,5374,5990,1,2,3
0,5375,2450,1,2,3
0,5376,860,1,2,3
0,5377,2800,1,2,3
0,5378,3390,1,2,3
0,5379,1280,1,2,3
0,5380,1700,-1,2,3
0,5381,490,1,2,3
0,5382,4130,1,2,3
0,5383,4580,-1,2,3
0,5384,890,1,2,3
0,5385,1100,1,2,3
0,5386,420,-1,2,3
0,5387,5970,-1,2,3
0,5388,2030,-1,2,3
0,5389,930,-1,2,3
0,5390,1040,-1,2,3
0,5391,680,-1,2,3
0,5392,960,-1,2,3
0,5393,1010,1,2,3
0,5394,530,1,2,3
0,5395,620,1,2,3
0,5396,2230,1,2,3
0,5397,2010,1,2,3
0,5398,9890,1,2,3
0,5399,3130,-1,2,3
0,5400,2450,-1,3,0
0,5401,340,-1,3,0
0,5402,3590,-1,3,0
0,5403,1000,-1,3,0
0,5404,760,-1,3,0
0,5405,1870,-1,3,0
0,5406,1350,-1,3,0
0,5407,960,-1,3,0
0,5408,2830,-1,3,0
0,5409,3730,-1,3,0
0,5410,1110,-1,3,0
0,5411,680,-1,3,0
0,5412,3200,-1,3,0
0,5413,2280,-1,3,0
0,5414,3660,-1,3,0
0,5415,3180,1,3,0
0,5416,2490,-1,3,0
0,5417,1090,1,3,0
0,5418,1380,-1,3,0
0,5419,1870,-1,3,0
0,5420,470,-1,3,0
0,5421,1650,1,3,0
0,5422,1580,-1,3,0
0,5423,890,-1,3,0
0,5424,720,-1,3,0
0,5425,990,-1,3,0
0,5426,1040,-1,3,0
0,5427,4580,-1,3,0
0,5428,1720,-1,3,0
0,5429,2880,-1,3,0
0,5430,3040,-1,3,0
0,5431,4040,-1,3,0
0,5432,9870,-1,3,0
0,5433,4940,1,3,0
0,5434,4580,-1,3,0
0,5435,1280,1,3,0
0,5436,2230,-1,3,0
0,5437,500,-1,3,0
0,5438,550,-1,3,0
0,5439,2860,-1,3,0
0,5440,3930,-1,3,0
0,5441,1090,-1,3,0
0,5442,910,-1,3,0
0,5443,2880,-1,3,0
0,5444,1250,-1,3,0
0,5445,1290,-1,3,0
0,5446,1550,-1,3,0
0,5447,760,-1,3,0
0,5448,1090,-1,3,0
0,5449,910,-1,3,0
0,5450,410,1,3,0
0,5451,4300,-1,3,0
0,5452,1790,-1,3,0
0,5453,1910,-1,3,0
0,5454,1400,-1,3,0
0,5455,550,-1,3,0
0,5456,820,-1,3,0
0,5457,1280,-1,3,0
0,5458,1630,1,3,0
0,5459,2770,-1,3,0
0,5460,650,-1,3,0
0,5461,1830,-1,3,0
0,5462,950,-1,3,0
0,5463,1860,-1,3,0
0,5464,2090,-1,3,0
0,5465,5040,-1,3,0
0,5466,890,-1,3,0
0,5467,630,-1,3,0
0,5468,630,-1,3,0
0,5469,630,-1,3,0
0,5470,600,-1,3,0
0,5471,650,-1,3,0
0,5472,2290,1,3,0
0,5473,1480,-1,3,0
0,5474,780,-1,3,0
0,5475,2820,-1,3,0
0,5476,2730,-1,3,0
0,5477,1020,-1,3,0
0,5478,1490,1,3,0
0,5479,1290,-1,3,0
0,5480,2890,-1,3,0
0,5481,2250,-1,3,0
0,5482,1460,-1,3,0
0,5483,1110,-1,3,0
0,5484,2650,-1,3,0
0,5485,750,-1,3,0
0,5486,2230,-1,3,0
0,5487,2940,-1,3,0
0,5488,640,-1,3,0
0,5489,3050,-1,3,0
0,5490,860,-1,3,0
0,5491,2060,-1,3,0
0,5492,640,-1,3,0
0,5493,1150,-1,3,0
0,5494,1040,-1,3,0
0,5495,1900,-1,3,0
0,5496,2080,-1,3,0
0,5497,1110,-1,3,0
0,5498,1630,-1,3,0
0,5499,1610,-1,3,0
0,5500,2130,-1,3,0
0,5501,870,-1,3,0
0,5502,1680,-1,3,0
0,5503,600,-1,3,0
0,5504,490,-1,3,0
0,5505,2350,-1,3,0
0,5506,660,-1,3,0
0,5507,810,-1,3,0
0,5508,2270,-1,3,0
0,5509,250,-1,3,0
0,5510,1610,1,3,0
0,5511,940,-1,3,0
0,5512,900,1,3,0
0,5513,2150,-1,3,0
0,5514,1310,-1,3,0
0,5515,1320,-1,3,0
0,5516,1250,-1,3,0
0,5517,1000,-1,3,0
0,5518,580,-1,3,0
0,5519,1230,-1,3,0
0,5520,1250,-1,3,0
0,5521,990,-1,3,0
0,5522,1030,1,3,0
0,5523,820,-1,3,0
0,5524,1760,-1,3,0
