parcode,trial,rt,choice,item_left,item_right
0,0,7330,1,0,0
0,1,1220,-1,0,0
0,2,1060,1,0,0
0,3,6880,1,0,0
0,4,8000,-1,0,0
0,5,3350,1,0,0
0,6,7160,1,0,0
0,7,3540,1,0,0
0,8,2870,1,0,0
0,9,5830,1,0,0
0,10,3650,1,0,0
0,11,4760,1,0,0
0,12,860,1,0,0
0,13,5120,1,0,0
0,14,1380,-1,0,0
0,15,1590,-1,0,0
0,16,13550,-1,0,0
0,17,1070,-1,0,0
0,18,1580,-1,0,0
0,19,7500,1,0,0
0,20,2630,1,0,0
0,21,3150,-1,0,0
0,22,1940,1,0,0
0,23,1200,-1,0,0
0,24,11380,-1,0,0
0,25,2050,1,0,0
0,26,6290,1,0,0
0,27,3110,1,0,0
0,28,630,1,0,0
0,29,1150,-1,0,0
0,30,660,1,0,0
0,31,3290,1,0,0
0,32,930,1,0,0
0,33,1690,-1,0,0
0,34,1650,-1,0,0
0,35,660,1,0,0
0,36,1810,-1,0,0
0,37,4080,1,0,0
0,38,1630,1,0,0
0,39,440,-1,0,0
0,40,740,1,0,0
0,41,950,-1,0,0
0,42,1070,-1,0,0
0,43,1750,-1,0,0
0,44,2730,1,0,0
0,45,400,-1,0,0
0,46,3330,1,0,0
0,47,390,1,0,0
0,48,1800,1,0,0
0,49,1220,-1,0,0
0,50,8590,-1,0,0
0,51,7800,-1,0,0
0,52,950,1,0,0
0,53,3050,-1,0,0
0,54,3780,-1,0,0
0,55,5950,1,0,0
0,56,1400,-1,0,0
0,57,990,-1,0,0
0,58,920,1,0,0
0,59,600,1,0,0
0,60,6120,-1,0,0
0,61,3850,-1,0,0
0,62,3590,-1,0,0
0,63,1680,1,0,0
0,64,590,-1,0,0
0,65,2150,-1,0,0
0,66,2390,-1,0,0
0,67,3830,1,0,0
0,68,2570,-1,0,0
0,69,740,-1,0,0
0,70,11970,1,0,0
0,71,3210,-1,0,0
0,72,1670,-1,0,0
0,73,6400,-1,0,0
0,74,620,-1,0,0
0,75,740,-1,0,0
0,76,2480,-1,0,0
0,77,6150,-1,0,0
0,78,7300,-1,0,0
0,79,1820,-1,0,0
0,80,850,1,0,0
0,81,1180,1,0,0
0,82,950,-1,0,0
0,83,2680,-1,0,0
0,84,600,-1,0,0
0,85,1650,1,0,0
0,86,800,-1,0,0
0,87,2970,-1,0,0
0,88,5260,-1,0,0
0,89,3070,1,0,0
0,90,290,1,0,0
0,91,3630,-1,0,0
0,92,4140,-1,0,0
0,93,2830,1,0,0
0,94,2650,-1,0,0
0,95,2310,-1,0,0
0,96,3030,1,0,0
0,97,1590,1,0,0
0,98,3420,1,0,0
0,99,2990,1,0,0
0,100,2050,-1,0,0
0,101,9180,1,0,0
0,102,5460,1,0,0
0,103,540,-1,0,0
0,104,2720,-1,0,0
0,105,1980,-1,0,0
0,106,1620,1,0,0
0,107,2550,-1,0,0
0,108,2690,1,0,0
0,109,1760,-1,0,0
0,110,1470,1,0,0
0,111,2560,1,0,0
0,112,1560,1,0,0
0,113,1440,-1,0,0
0,114,540,1,0,0
0,115,7170,-1,0,0
0,116,1750,1,0,0
0,117,2880,-1,0,0
0,118,470,-1,0,0
0,119,6970,1,0,0
0,120,1160,1,0,0
0,121,830,1,0,0
0,122,5420,-1,0,0
0,123,2380,1,0,0
0,124,5570,-1,0,0
0,125,3260,1,0,0
0,126,12780,1,0,0
0,127,2260,1,0,0
0,128,1780,-1,0,0
0,129,2050,1,0,0
0,130,1170,1,0,0
0,131,4520,-1,0,0
0,132,1380,1,0,0
0,133,3240,-1,0,0
0,134,480,1,0,0
0,135,3940,1,0,0
0,136,1560,1,0,0
0,137,10230,1,0,0
0,138,1740,-1,0,0
0,139,2090,-1,0,0
0,140,9940,1,0,0
0,141,1010,-1,0,0
0,142,4690,1,0,0
0,143,1820,-1,0,0
0,144,4610,1,0,0
0,145,950,1,0,0
0,146,8070,1,0,0
0,147,7380,-1,0,0
0,148,3140,1,0,0
0,149,1450,-1,0,0
0,150,380,1,0,0
0,151,2310,1,0,0
0,152,5350,1,0,0
0,153,1280,-1,0,0
0,154,3190,-1,0,0
0,155,900,-1,0,0
0,156,1160,1,0,0
0,157,660,-1,0,0
0,158,1530,1,0,0
0,159,2070,-1,0,0
0,160,1390,-1,0,0
0,161,2050,1,0,0
0,162,6370,-1,0,0
0,163,4510,1,0,0
0,164,3060,-1,0,0
0,165,11280,1,0,0
0,166,390,1,0,0
0,167,3280,1,0,0
0,168,1570,1,0,0
0,169,5000,1,0,0
0,170,4120,1,0,0
0,171,6170,-1,0,0
0,172,750,1,0,0
0,173,4910,1,0,0
0,174,4310,1,0,0
0,175,650,1,0,0
0,176,2630,-1,0,0
0,177,610,1,0,0
0,178,3440,-1,0,0
0,179,2760,-1,0,0
0,180,970,-1,0,0
0,181,540,-1,0,0
0,182,1280,-1,0,0
0,183,1560,-1,0,0
0,184,3070,1,0,0
0,185,2390,1,0,0
0,186,5360,1,0,0
0,187,2130,1,0,0
0,188,6970,-1,0,0
0,189,680,-1,0,0
0,190,4120,-1,0,0
0,191,1650,-1,0,0
0,192,2940,-1,0,0
0,193,3840,-1,0,0
0,194,5600,-1,0,0
0,195,2890,-1,0,0
0,196,5160,1,0,0
0,197,2480,-1,0,0
0,198,1090,1,0,0
0,199,2990,-1,0,0
0,200,2560,1,0,0
0,201,3620,-1,0,0
0,202,1650,1,0,0
0,203,1520,1,0,0
0,204,1920,-1,0,0
0,205,7000,-1,0,0
0,206,3600,1,0,0
0,207,1130,-1,0,0
0,208,2010,1,0,0
0,209,1570,-1,0,0
0,210,2090,1,0,0
0,211,5900,1,0,0
0,212,6300,-1,0,0
0,213,730,1,0,0
0,214,8680,-1,0,0
0,215,1020,-1,0,0
0,216,2430,1,0,0
0,217,920,1,0,0
0,218,2210,-1,0,0
0,219,2630,1,0,0
0,220,5440,-1,0,0
0,221,6060,-1,0,0
0,222,2720,1,0,0
0,223,1630,1,0,0
0,224,690,-1,0,0
0,225,3510,1,0,0
0,226,770,1,0,0
0,227,2220,1,0,0
0,228,1710,-1,0,0
0,229,1400,-1,0,0
0,230,2610,-1,0,0
0,231,13080,1,0,0
0,232,2730,1,0,0
0,233,5590,-1,0,0
0,234,2480,1,0,0
0,235,2570,1,0,0
0,236,2170,-1,0,0
0,237,3420,-1,0,0
0,238,710,-1,0,0
0,239,2460,-1,0,0
0,240,1770,1,0,0
0,241,380,-1,0,0
0,242,2610,-1,0,0
0,243,4610,1,0,0
0,244,4590,-1,0,0
0,245,1750,1,0,0
0,246,670,1,0,0
0,247,2920,-1,0,0
0,248,1100,1,0,0
0,249,1680,-1,0,0
0,250,2840,-1,0,0
0,251,1930,-1,0,0
0,252,1380,1,0,0
0,253,1860,-1,0,0
0,254,11350,-1,0,0
0,255,610,-1,0,0
0,256,1160,1,0,0
0,257,1440,-1,0,0
0,258,3320,-1,0,0
0,259,1220,1,0,0
0,260,590,-1,0,0
0,261,6290,-1,0,0
0,262,6150,1,0,0
0,263,4840,1,0,0
0,264,1880,-1,0,0
0,265,1360,-1,0,0
0,266,1800,-1,0,0
0,267,2690,1,0,0
0,268,1570,-1,0,0
0,269,1410,-1,0,0
0,270,1420,1,0,0
0,271,2680,1,0,0
0,272,2540,1,0,0
0,273,1780,1,0,0
0,274,9890,-1,0,0
0,275,4350,1,0,0
0,276,2690,-1,0,0
0,277,1540,-1,0,0
0,278,2310,-1,0,0
0,279,3940,-1,0,0
0,280,860,-1,0,0
0,281,6460,-1,0,0
0,282,10360,-1,0,0
0,283,2020,-1,0,0
0,284,3430,-1,0,0
0,285,2600,1,0,0
0,286,3360,-1,0,0
0,287,4190,1,0,0
0,288,1350,-1,0,0
0,289,2210,1,0,0
0,290,2660,1,0,0
0,291,7400,-1,0,0
0,292,3260,1,0,0
0,293,3220,1,0,0
0,294,1620,-1,0,0
0,295,880,-1,0,0
0,296,1290,1,0,0
0,297,2300,-1,0,0
0,298,4200,-1,0,0
0,299,360,-1,0,0
0,300,1410,1,0,1
0,301,1020,1,0,1
0,302,1140,1,0,1
0,303,1720,1,0,1
0,304,5430,1,0,1
0,305,6000,-1,0,1
0,306,900,-1,0,1
0,307,4290,1,0,1
0,308,2240,-1,0,1
0,309,1260,1,0,1
0,310,5440,1,0,1
0,311,1120,1,0,1
0,312,2630,1,0,1
0,313,1050,1,0,1
0,314,4060,-1,0,1
0,315,530,-1,0,1
0,316,2170,-1,0,1
0,317,420,1,0,1
0,318,1810,1,0,1
0,319,2580,-1,0,1
0,320,2040,1,0,1
0,321,1850,1,0,1
0,322,360,-1,0,1
0,323,2770,1,0,1
0,324,1050,1,0,1
0,325,1500,-1,0,1
0,326,10750,1,0,1
0,327,6790,1,0,1
0,328,1520,1,0,1
0,329,4600,-1,0,1
0,330,3010,1,0,1
0,331,2790,1,0,1
0,332,1030,1,0,1
0,333,4330,-1,0,1
0,334,580,-1,0,1
0,335,3570,1,0,1
0,336,8670,-1,0,1
0,337,1120,1,0,1
0,338,1380,1,0,1
0,339,2440,1,0,1
0,340,5060,1,0,1
0,341,1000,1,0,1
0,342,1310,1,0,1
0,343,2540,-1,0,1
0,344,3010,1,0,1
0,345,4520,1,0,1
0,346,1440,1,0,1
0,347,720,1,0,1
0,348,3420,1,0,1
0,349,1120,1,0,1
0,350,5750,1,0,1
0,351,540,1,0,1
0,352,320,1,0,1
0,353,1600,-1,0,1
0,354,3950,1,0,1
0,355,1780,-1,0,1
0,356,3770,1,0,1
0,357,3040,1,0,1
0,358,1900,1,0,1
0,359,4720,-1,0,1
0,360,1030,-1,0,1
0,361,2520,1,0,1
0,362,2100,1,0,1
0,363,720,-1,0,1
0,364,2350,-1,0,1
0,365,4450,1,0,1
0,366,5080,1,0,1
0,367,1950,1,0,1
0,368,5480,-1,0,1
0,369,4800,1,0,1
0,370,710,-1,0,1
0,371,1150,1,0,1
0,372,2080,1,0,1
0,373,7300,1,0,1
0,374,1080,1,0,1
0,375,4380,-1,0,1
0,376,1280,1,0,1
0,377,6430,1,0,1
0,378,1180,-1,0,1
0,379,7800,1,0,1
0,380,5560,1,0,1
0,381,2840,-1,0,1
0,382,5620,-1,0,1
0,383,470,-1,0,1
0,384,7190,-1,0,1
0,385,2390,1,0,1
0,386,550,1,0,1
0,387,5670,1,0,1
0,388,1040,-1,0,1
0,389,1550,1,0,1
0,390,4840,-1,0,1
0,391,380,1,0,1
0,392,6220,-1,0,1
0,393,4650,1,0,1
0,394,1340,-1,0,1
0,395,530,1,0,1
0,396,310,-1,0,1
0,397,3070,1,0,1
0,398,3220,1,0,1
0,399,1780,1,0,1
0,400,1190,1,0,1
0,401,1030,1,0,1
0,402,1230,-1,0,1
0,403,1520,-1,0,1
0,404,3990,1,0,1
0,405,1280,1,0,1
0,406,2810,1,0,1
0,407,800,-1,0,1
0,408,700,1,0,1
0,409,1570,1,0,1
0,410,2000,-1,0,1
0,411,3970,-1,0,1
0,412,2330,1,0,1
0,413,9070,1,0,1
0,414,2880,1,0,1
0,415,4020,1,0,1
0,416,2110,-1,0,1
0,417,2210,-1,0,1
0,418,7140,1,0,1
0,419,1330,1,0,1
0,420,2530,1,0,1
0,421,840,1,0,1
0,422,5630,1,0,1
0,423,3360,1,0,1
0,424,3470,-1,0,1
0,425,2350,1,0,1
0,426,1350,-1,0,1
0,427,3120,1,0,1
0,428,360,1,0,1
0,429,2920,-1,0,1
0,430,1540,-1,0,1
0,431,5050,1,0,1
0,432,4270,-1,0,1
0,433,410,1,0,1
0,434,3540,1,0,1
0,435,1450,-1,0,1
0,436,750,1,0,1
0,437,1390,-1,0,1
0,438,4090,1,0,1
0,439,3710,1,0,1
0,440,2240,1,0,1
0,441,4620,-1,0,1
0,442,14010,1,0,1
0,443,4150,1,0,1
0,444,3140,-1,0,1
0,445,8320,1,0,1
0,446,6040,1,0,1
0,447,2580,1,0,1
0,448,3350,1,0,1
0,449,4920,1,0,1
0,450,1410,1,0,1
0,451,850,-1,0,1
0,452,4570,-1,0,1
0,453,2050,1,0,1
0,454,3880,1,0,1
0,455,1070,1,0,1
0,456,540,1,0,1
0,457,880,-1,0,1
0,458,7630,1,0,1
0,459,2450,1,0,1
0,460,8160,-1,0,1
0,461,2640,-1,0,1
0,462,520,1,0,1
0,463,570,1,0,1
0,464,4840,1,0,1
0,465,5230,1,0,1
0,466,2060,1,0,1
0,467,1930,-1,0,1
0,468,1750,-1,0,1
0,469,670,1,0,1
0,470,2010,1,0,1
0,471,660,-1,0,1
0,472,1570,1,0,1
0,473,720,1,0,1
0,474,960,1,0,1
0,475,1260,1,0,1
0,476,3160,1,0,1
0,477,770,-1,0,1
0,478,1090,1,0,1
0,479,5880,1,0,1
0,480,1460,1,0,1
0,481,1430,-1,0,1
0,482,3120,-1,0,1
0,483,3530,1,0,1
0,484,1090,1,0,1
0,485,1730,-1,0,1
0,486,2090,1,0,1
0,487,1920,1,0,1
0,488,1900,1,0,1
0,489,3510,1,0,1
0,490,800,-1,0,1
0,491,1640,-1,0,1
0,492,4110,1,0,1
0,493,2230,1,0,1
0,494,5220,1,0,1
0,495,8940,-1,0,1
0,496,1240,1,0,1
0,497,1190,1,0,1
0,498,2540,-1,0,1
0,499,2270,1,0,1
0,500,860,-1,0,1
0,501,1040,1,0,1
0,502,1160,-1,0,1
0,503,1120,-1,0,1
0,504,2750,1,0,1
0,505,1510,1,0,1
0,506,1230,1,0,1
0,507,1080,1,0,1
0,508,7490,1,0,1
0,509,2950,1,0,1
0,510,860,-1,0,1
0,511,7980,1,0,1
0,512,5680,-1,0,1
0,513,910,1,0,1
0,514,1190,1,0,1
0,515,2940,1,0,1
0,516,2100,1,0,1
0,517,1470,1,0,1
0,518,3640,1,0,1
0,519,5900,-1,0,1
0,520,3910,-1,0,1
0,521,610,-1,0,1
0,522,3270,1,0,1
0,523,3880,1,0,1
0,524,1020,-1,0,1
0,525,8680,1,0,1
0,526,730,1,0,1
0,527,750,-1,0,1
0,528,1040,1,0,1
0,529,1870,1,0,1
0,530,960,1,0,1
0,531,2110,1,0,1
0,532,1770,1,0,1
0,533,2130,1,0,1
0,534,1750,1,0,1
0,535,1750,1,0,1
0,536,4580,-1,0,1
0,537,6950,-1,0,1
0,538,3620,1,0,1
0,539,2030,-1,0,1
0,540,2600,1,0,1
0,541,4210,1,0,1
0,542,3720,-1,0,1
0,543,2030,1,0,1
0,544,4400,-1,0,1
0,545,1170,-1,0,1
0,546,4100,-1,0,1
0,547,670,1,0,1
0,548,4740,-1,0,1
0,549,840,-1,0,1
0,550,2090,1,0,1
0,551,4150,1,0,1
0,552,1690,1,0,1
0,553,2620,1,0,1
0,554,730,-1,0,1
0,555,5780,1,0,1
0,556,3890,1,0,1
0,557,2990,1,0,1
0,558,1240,-1,0,1
0,559,3180,1,0,1
0,560,4440,1,0,1
0,561,4300,1,0,1
0,562,3970,1,0,1
0,563,6320,1,0,1
0,564,2440,1,0,1
0,565,2460,1,0,1
0,566,2790,1,0,1
0,567,420,1,0,1
0,568,1590,-1,0,1
0,569,1270,1,0,1
0,570,5410,-1,0,1
0,571,3300,1,0,1
0,572,3870,1,0,1
0,573,620,1,0,1
0,574,5240,1,0,1
0,575,3340,1,0,1
0,576,4850,1,0,1
0,577,4170,-1,0,1
0,578,3150,1,0,1
0,579,2110,1,0,1
0,580,4370,-1,0,1
0,581,4510,1,0,1
0,582,2390,1,0,1
0,583,2070,1,0,1
0,584,2280,-1,0,1
0,585,2400,-1,0,1
0,586,3590,1,0,1
0,587,1930,-1,0,1
0,588,700,1,0,1
0,589,630,1,0,1
0,590,1900,1,0,1
0,591,1190,-1,0,1
0,592,2030,1,0,1
0,593,1170,1,0,1
0,594,3450,1,0,1
0,595,950,1,0,1
0,596,3120,1,0,1
0,597,4500,1,0,1
0,598,5290,-1,0,1
0,599,2710,1,0,1
0,600,5780,-1,0,1
0,601,1460,-1,0,1
0,602,1910,-1,0,1
0,603,2250,1,0,1
0,604,1230,1,0,1
0,605,7380,1,0,1
0,606,5440,-1,0,1
0,607,1700,-1,0,1
0,608,2790,1,0,1
0,609,750,-1,0,1
0,610,3080,1,0,1
0,611,2800,-1,0,1
0,612,2350,1,0,1
0,613,1190,1,0,1
0,614,4480,1,0,1
0,615,820,1,0,1
0,616,1550,1,0,1
0,617,1260,1,0,1
0,618,1850,1,0,1
0,619,3760,1,0,1
0,620,2820,-1,0,1
0,621,1290,1,0,1
0,622,2070,1,0,1
0,623,1460,-1,0,1
0,624,350,1,0,1
0,625,2150,1,0,1
0,626,1300,-1,0,1
0,627,2860,-1,0,1
0,628,7620,1,0,1
0,629,1320,1,0,1
0,630,870,1,0,1
0,631,1010,-1,0,1
0,632,2120,1,0,1
0,633,830,-1,0,1
0,634,3610,1,0,1
0,635,2710,1,0,1
0,636,1290,1,0,1
0,637,1960,-1,0,1
0,638,1100,1,0,1
0,639,1400,1,0,1
0,640,2440,1,0,1
0,641,3520,1,0,1
0,642,670,-1,0,1
0,643,530,-1,0,1
0,644,6860,1,0,1
0,645,3500,1,0,1
0,646,3080,-1,0,1
0,647,1540,-1,0,1
0,648,6710,1,0,1
0,649,920,1,0,1
0,650,660,-1,0,1
0,651,2820,-1,0,1
0,652,2820,-1,0,1
0,653,4040,-1,0,1
0,654,2320,-1,0,1
0,655,4940,1,0,1
0,656,7650,-1,0,1
0,657,3170,1,0,1
0,658,7900,-1,0,1
0,659,7460,-1,0,1
0,660,3660,1,0,1
0,661,6520,1,0,1
0,662,1290,-1,0,1
0,663,3410,1,0,1
0,664,1560,1,0,1
0,665,1330,1,0,1
0,666,960,1,0,1
0,667,950,-1,0,1
0,668,4410,1,0,1
0,669,1250,1,0,1
0,670,2450,1,0,1
0,671,1950,1,0,1
0,672,2730,1,0,1
0,673,2640,-1,0,1
0,674,1040,1,0,1
0,675,1680,1,0,1
0,676,2650,1,0,1
0,677,1530,1,0,1
0,678,3060,-1,0,1
0,679,1990,1,0,1
0,680,650,-1,0,1
0,681,810,1,0,1
0,682,2730,1,0,1
0,683,3530,1,0,1
0,684,5540,-1,0,1
0,685,1050,1,0,1
0,686,1260,1,0,1
0,687,3290,-1,0,1
0,688,1780,-1,0,1
0,689,340,1,0,1
0,690,2160,-1,0,1
0,691,4960,1,0,1
0,692,1890,1,0,1
0,693,1990,-1,0,1
0,694,990,-1,0,1
0,695,1220,1,0,1
0,696,2240,-1,0,1
0,697,2160,-1,0,1
0,698,1460,1,0,1
0,699,3970,1,0,1
0,700,460,1,0,1
0,701,560,-1,0,1
0,702,2200,1,0,1
0,703,2470,1,0,1
0,704,930,1,0,1
0,705,670,-1,0,1
0,706,3440,1,0,1
0,707,620,1,0,1
0,708,5090,-1,0,1
0,709,1240,1,0,1
0,710,5590,-1,0,1
0,711,1160,-1,0,1
0,712,2430,-1,0,1
0,713,1400,1,0,1
0,714,1560,1,0,1
0,715,2860,1,0,1
0,716,1660,1,0,1
0,717,4890,1,0,1
0,718,1000,1,0,1
0,719,2650,1,0,1
0,720,5230,-1,0,1
0,721,7220,1,0,1
0,722,750,1,0,1
0,723,2650,1,0,1
0,724,3310,1,0,1
0,725,840,-1,0,1
0,726,5560,1,0,1
0,727,14080,1,0,1
0,728,1230,1,0,1
0,729,650,1,0,1
0,730,3250,-1,0,1
0,731,1340,1,0,1
0,732,550,1,0,1
0,733,6240,-1,0,1
0,734,1820,1,0,1
0,735,9290,-1,0,1
0,736,10380,1,0,1
0,737,4160,1,0,1
0,738,5540,1,0,1
0,739,2690,-1,0,1
0,740,4140,1,0,1
0,741,1250,1,0,1
0,742,4440,1,0,1
0,743,1990,1,0,1
0,744,2420,1,0,1
0,745,3450,-1,0,1
0,746,1400,1,0,1
0,747,690,1,0,1
0,748,890,1,0,1
0,749,3050,1,0,1
0,750,1650,1,0,1
0,751,3990,1,0,1
0,752,2040,-1,0,1
0,753,6700,1,0,1
0,754,7290,1,0,1
0,755,780,1,0,1
0,756,810,1,0,1
0,757,7710,1,0,1
0,758,1300,-1,0,1
0,759,1900,-1,0,1
0,760,4150,-1,0,1
0,761,1000,-1,0,1
0,762,460,1,0,1
0,763,1090,-1,0,1
0,764,3830,-1,0,1
0,765,4730,1,0,1
0,766,3930,-1,0,1
0,767,3140,-1,0,1
0,768,3390,-1,0,1
0,769,3020,1,0,1
0,770,930,1,0,1
0,771,520,-1,0,1
0,772,1510,1,0,1
0,773,1080,1,0,1
0,774,970,-1,0,1
0,775,2520,1,0,1
0,776,3360,-1,0,1
0,777,2300,1,0,1
0,778,2380,1,0,1
0,779,1530,1,0,1
0,780,2070,1,0,1
0,781,1060,-1,0,1
0,782,2280,1,0,1
0,783,2110,1,0,1
0,784,2590,1,0,1
0,785,3010,-1,0,1
0,786,890,-1,0,1
0,787,2230,-1,0,1
0,788,1250,1,0,1
0,789,5880,-1,0,1
0,790,7850,1,0,1
0,791,2080,1,0,1
0,792,1940,-1,0,1
0,793,1380,1,0,1
0,794,5540,1,0,1
0,795,2730,-1,0,1
0,796,2730,-1,0,1
0,797,2380,-1,0,1
0,798,3980,1,0,1
0,799,1860,1,0,1
0,800,490,1,0,1
0,801,1490,-1,0,1
0,802,3280,1,0,1
0,803,2750,-1,0,1
0,804,1450,1,0,1
0,805,6260,1,0,1
0,806,2110,1,0,1
0,807,1630,1,0,1
0,808,4030,-1,0,1
0,809,3340,-1,0,1
0,810,2560,-1,0,1
0,811,5650,-1,0,1
0,812,1300,1,0,1
0,813,1170,1,0,1
0,814,2650,-1,0,1
0,815,3320,-1,0,1
0,816,2830,1,0,1
0,817,4970,1,0,1
0,818,3130,1,0,1
0,819,760,-1,0,1
0,820,1460,-1,0,1
0,821,5030,-1,0,1
0,822,7180,-1,0,1
0,823,3120,1,0,1
0,824,3840,-1,0,1
0,825,4270,1,0,1
0,826,1790,1,0,1
0,827,10640,1,0,1
0,828,2530,1,0,1
0,829,2490,-1,0,1
0,830,2680,1,0,1
0,831,1190,1,0,1
0,832,330,-1,0,1
0,833,2240,-1,0,1
0,834,2210,1,0,1
0,835,2590,1,0,1
0,836,4150,1,0,1
0,837,750,1,0,1
0,838,970,1,0,1
0,839,520,-1,0,1
0,840,2540,-1,0,1
0,841,470,1,0,1
0,842,1280,-1,0,1
0,843,1080,-1,0,1
0,844,1870,1,0,1
0,845,2080,1,0,1
0,846,1120,1,0,1
0,847,930,-1,0,1
0,848,2860,1,0,1
0,849,650,1,0,1
0,850,1750,-1,0,1
0,851,3580,-1,0,1
0,852,2770,-1,0,1
0,853,680,-1,0,1
0,854,1700,1,0,1
0,855,7930,1,0,1
0,856,2060,-1,0,1
0,857,3820,1,0,1
0,858,2170,1,0,1
0,859,830,1,0,1
0,860,5530,1,0,1
0,861,6520,1,0,1
0,862,1080,-1,0,1
0,863,8480,-1,0,1
0,864,2810,1,0,1
0,865,3120,1,0,1
0,866,1040,1,0,1
0,867,2210,1,0,1
0,868,4820,1,0,1
0,869,2580,1,0,1
0,870,600,1,0,1
0,871,1480,1,0,1
0,872,1830,1,0,1
0,873,520,1,0,1
0,874,1030,-1,0,1
0,875,1520,1,0,1
0,876,420,-1,0,1
0,877,3990,1,0,1
0,878,3760,1,0,1
0,879,1830,-1,0,1
0,880,1270,1,0,1
0,881,1340,1,0,1
0,882,1800,1,0,1
0,883,5890,-1,0,1
0,884,2070,-1,0,1
0,885,2310,1,0,1
0,886,6100,1,0,1
0,887,6830,1,0,1
0,888,1830,-1,0,1
0,889,4530,-1,0,1
0,890,1640,1,0,1
0,891,940,-1,0,1
0,892,2770,1,0,1
0,893,3630,1,0,1
0,894,1200,1,0,1
0,895,4350,1,0,1
0,896,1250,-1,0,1
0,897,1810,-1,0,1
0,898,890,1,0,1
0,899,2750,-1,0,1
0,900,1260,1,0,2
0,901,3340,1,0,2
0,902,6750,1,0,2
0,903,660,1,0,2
0,904,1390,1,0,2
0,905,1050,1,0,2
0,906,2750,1,0,2
0,907,1190,1,0,2
0,908,1660,1,0,2
0,909,480,-1,0,2
0,910,1660,1,0,2
0,911,1510,1,0,2
0,912,2710,1,0,2
0,913,1690,1,0,2
0,914,5290,-1,0,2
0,915,5970,1,0,2
0,916,3690,-1,0,2
0,917,860,1,0,2
0,918,860,1,0,2
0,919,1000,1,0,2
0,920,4600,1,0,2
0,921,1720,1,0,2
0,922,2020,1,0,2
0,923,840,1,0,2
0,924,1270,1,0,2
0,925,760,1,0,2
0,926,970,-1,0,2
0,927,910,1,0,2
0,928,360,1,0,2
0,929,5120,1,0,2
0,930,2240,1,0,2
0,931,920,1,0,2
0,932,2050,1,0,2
0,933,2070,1,0,2
0,934,1060,-1,0,2
0,935,1200,1,0,2
0,936,1020,-1,0,2
0,937,4690,1,0,2
0,938,2670,1,0,2
0,939,1910,1,0,2
0,940,4620,1,0,2
0,941,2960,1,0,2
0,942,7660,-1,0,2
0,943,1780,1,0,2
0,944,3360,1,0,2
0,945,810,1,0,2
0,946,1570,1,0,2
0,947,1030,-1,0,2
0,948,2130,1,0,2
0,949,4840,1,0,2
0,950,2160,1,0,2
0,951,1220,1,0,2
0,952,4690,1,0,2
0,953,2230,1,0,2
0,954,3230,1,0,2
0,955,3600,1,0,2
0,956,1320,1,0,2
0,957,4800,1,0,2
0,958,820,1,0,2
0,959,3430,1,0,2
0,960,1560,1,0,2
0,961,1380,1,0,2
0,962,1990,-1,0,2
0,963,2650,1,0,2
0,964,3760,-1,0,2
0,965,500,-1,0,2
0,966,1400,1,0,2
0,967,1940,1,0,2
0,968,3220,1,0,2
0,969,2100,1,0,2
0,970,4930,1,0,2
0,971,640,-1,0,2
0,972,1620,1,0,2
0,973,430,-1,0,2
0,974,3060,1,0,2
0,975,2240,1,0,2
0,976,8940,1,0,2
0,977,660,1,0,2
0,978,2790,1,0,2
0,979,1810,1,0,2
0,980,2030,-1,0,2
0,981,5830,1,0,2
0,982,930,1,0,2
0,983,2520,1,0,2
0,984,1640,1,0,2
0,985,3020,1,0,2
0,986,1560,-1,0,2
0,987,1500,1,0,2
0,988,2120,1,0,2
0,989,8130,1,0,2
0,990,2140,1,0,2
0,991,840,-1,0,2
0,992,750,1,0,2
0,993,1270,1,0,2
0,994,1410,-1,0,2
0,995,2120,1,0,2
0,996,1270,1,0,2
0,997,1210,1,0,2
0,998,2340,1,0,2
0,999,1520,1,0,2
0,1000,900,-1,0,2
0,1001,2400,1,0,2
0,1002,6680,1,0,2
0,1003,960,1,0,2
0,1004,3670,1,0,2
0,1005,5650,1,0,2
0,1006,1390,1,0,2
0,1007,1250,1,0,2
0,1008,2050,1,0,2
0,1009,1190,1,0,2
0,1010,7190,-1,0,2
0,1011,1030,1,0,2
0,1012,5740,1,0,2
0,1013,4690,1,0,2
0,1014,2470,1,0,2
0,1015,2510,1,0,2
0,1016,1520,1,0,2
0,1017,1270,1,0,2
0,1018,2450,-1,0,2
0,1019,2040,1,0,2
0,1020,530,1,0,2
0,1021,1200,1,0,2
0,1022,5240,1,0,2
0,1023,2110,1,0,2
0,1024,2110,1,0,2
0,1025,1240,1,0,2
0,1026,3450,1,0,2
0,1027,3540,-1,0,2
0,1028,1610,1,0,2
0,1029,1360,1,0,2
0,1030,1640,1,0,2
0,1031,3110,1,0,2
0,1032,2940,-1,0,2
0,1033,2850,1,0,2
0,1034,1670,1,0,2
0,1035,660,-1,0,2
0,1036,1740,1,0,2
0,1037,960,1,0,2
0,1038,2650,-1,0,2
0,1039,3430,1,0,2
0,1040,630,1,0,2
0,1041,800,1,0,2
0,1042,1100,-1,0,2
0,1043,3950,1,0,2
0,1044,1070,1,0,2
0,1045,1630,1,0,2
0,1046,2220,1,0,2
0,1047,2110,1,0,2
0,1048,4130,1,0,2
0,1049,1040,1,0,2
0,1050,910,-1,0,2
0,1051,4940,1,0,2
0,1052,1980,1,0,2
0,1053,1360,1,0,2
0,1054,3410,1,0,2
0,1055,630,1,0,2
0,1056,2430,1,0,2
0,1057,2530,1,0,2
0,1058,1490,1,0,2
0,1059,1410,-1,0,2
0,1060,1630,-1,0,2
0,1061,3450,1,0,2
0,1062,1780,1,0,2
0,1063,3130,1,0,2
0,1064,2660,1,0,2
0,1065,6190,1,0,2
0,1066,1780,1,0,2
0,1067,1350,1,0,2
0,1068,8080,-1,0,2
0,1069,1180,1,0,2
0,1070,1680,1,0,2
0,1071,1950,1,0,2
0,1072,1490,1,0,2
0,1073,1980,1,0,2
0,1074,2600,1,0,2
0,1075,630,1,0,2
0,1076,1360,1,0,2
0,1077,3540,1,0,2
0,1078,1770,1,0,2
0,1079,5530,1,0,2
0,1080,3370,-1,0,2
0,1081,2460,1,0,2
0,1082,1460,1,0,2
0,1083,1350,1,0,2
0,1084,1190,1,0,2
0,1085,4120,1,0,2
0,1086,4000,1,0,2
0,1087,1820,1,0,2
0,1088,1630,1,0,2
0,1089,1120,1,0,2
0,1090,1560,1,0,2
0,1091,3080,1,0,2
0,1092,1290,1,0,2
0,1093,1380,1,0,2
0,1094,490,-1,0,2
0,1095,3900,1,0,2
0,1096,2020,1,0,2
0,1097,980,1,0,2
0,1098,1730,1,0,2
0,1099,4000,1,0,2
0,1100,2670,1,0,2
0,1101,1640,1,0,2
0,1102,1730,1,0,2
0,1103,4320,1,0,2
0,1104,850,1,0,2
0,1105,2190,1,0,2
0,1106,800,1,0,2
0,1107,320,1,0,2
0,1108,870,1,0,2
0,1109,2810,1,0,2
0,1110,620,1,0,2
0,1111,1070,1,0,2
0,1112,1220,1,0,2
0,1113,3250,1,0,2
0,1114,4780,1,0,2
0,1115,1660,1,0,2
0,1116,2650,1,0,2
0,1117,3970,1,0,2
0,1118,1580,1,0,2
0,1119,1370,1,0,2
0,1120,2240,1,0,2
0,1121,2230,1,0,2
0,1122,1090,1,0,2
0,1123,810,1,0,2
0,1124,1620,1,0,2
0,1125,800,1,0,2
0,1126,1670,1,0,2
0,1127,860,-1,0,2
0,1128,1880,1,0,2
0,1129,1400,1,0,2
0,1130,2470,1,0,2
0,1131,1220,1,0,2
0,1132,1870,1,0,2
0,1133,1970,1,0,2
0,1134,1430,1,0,2
0,1135,5100,1,0,2
0,1136,2220,1,0,2
0,1137,6080,1,0,2
0,1138,630,1,0,2
0,1139,3030,1,0,2
0,1140,610,-1,0,2
0,1141,3030,1,0,2
0,1142,580,1,0,2
0,1143,850,-1,0,2
0,1144,2470,1,0,2
0,1145,1020,-1,0,2
0,1146,260,1,0,2
0,1147,1260,-1,0,2
0,1148,2950,1,0,2
0,1149,560,1,0,2
0,1150,2730,1,0,2
0,1151,2000,-1,0,2
0,1152,2370,1,0,2
0,1153,1050,1,0,2
0,1154,8760,1,0,2
0,1155,1260,1,0,2
0,1156,4320,1,0,2
0,1157,3660,1,0,2
0,1158,960,1,0,2
0,1159,810,-1,0,2
0,1160,2300,1,0,2
0,1161,3630,1,0,2
0,1162,1690,1,0,2
0,1163,7400,1,0,2
0,1164,1720,1,0,2
0,1165,11590,1,0,2
0,1166,2760,1,0,2
0,1167,2020,-1,0,2
0,1168,1990,1,0,2
0,1169,2410,1,0,2
0,1170,870,1,0,2
0,1171,1060,1,0,2
0,1172,4880,-1,0,2
0,1173,3980,1,0,2
0,1174,960,1,0,2
0,1175,1650,1,0,2
0,1176,5580,-1,0,2
0,1177,1590,1,0,2
0,1178,3670,1,0,2
0,1179,1690,1,0,2
0,1180,2310,1,0,2
0,1181,1700,1,0,2
0,1182,1640,-1,0,2
0,1183,5680,1,0,2
0,1184,9420,1,0,2
0,1185,2160,1,0,2
0,1186,2230,1,0,2
0,1187,3100,1,0,2
0,1188,360,1,0,2
0,1189,1950,1,0,2
0,1190,2180,1,0,2
0,1191,1490,1,0,2
0,1192,5290,1,0,2
0,1193,1730,1,0,2
0,1194,1330,1,0,2
0,1195,1830,1,0,2
0,1196,4490,1,0,2
0,1197,760,1,0,2
0,1198,1480,1,0,2
0,1199,7530,1,0,2
0,1200,1310,1,0,2
0,1201,2130,1,0,2
0,1202,6260,1,0,2
0,1203,5150,1,0,2
0,1204,3180,1,0,2
0,1205,2120,1,0,2
0,1206,1560,1,0,2
0,1207,860,-1,0,2
0,1208,4870,1,0,2
0,1209,1810,1,0,2
0,1210,2200,1,0,2
0,1211,2240,1,0,2
0,1212,880,1,0,2
0,1213,4270,1,0,2
0,1214,3510,-1,0,2
0,1215,3250,1,0,2
0,1216,730,1,0,2
0,1217,2960,1,0,2
0,1218,690,-1,0,2
0,1219,990,-1,0,2
0,1220,1170,-1,0,2
0,1221,1490,1,0,2
0,1222,560,1,0,2
0,1223,890,-1,0,2
0,1224,830,-1,0,2
0,1225,1490,1,0,2
0,1226,2270,1,0,2
0,1227,4540,1,0,2
0,1228,3300,1,0,2
0,1229,3320,1,0,2
0,1230,3830,1,0,2
0,1231,2280,1,0,2
0,1232,1130,-1,0,2
0,1233,5640,1,0,2
0,1234,2880,1,0,2
0,1235,1890,1,0,2
0,1236,4360,-1,0,2
0,1237,650,1,0,2
0,1238,1030,-1,0,2
0,1239,2930,1,0,2
0,1240,2470,1,0,2
0,1241,1440,1,0,2
0,1242,1680,1,0,2
0,1243,2390,1,0,2
0,1244,610,-1,0,2
0,1245,2980,-1,0,2
0,1246,820,1,0,2
0,1247,1390,1,0,2
0,1248,3180,1,0,2
0,1249,1420,1,0,2
0,1250,4310,1,0,2
0,1251,7270,1,0,2
0,1252,1950,1,0,2
0,1253,1570,1,0,2
0,1254,2100,1,0,2
0,1255,1150,-1,0,2
0,1256,1490,1,0,2
0,1257,2760,1,0,2
0,1258,2270,1,0,2
0,1259,3660,1,0,2
0,1260,2810,1,0,2
0,1261,1120,1,0,2
0,1262,3180,1,0,2
0,1263,5620,1,0,2
0,1264,4220,-1,0,2
0,1265,1730,1,0,2
0,1266,4350,1,0,2
0,1267,2250,1,0,2
0,1268,2300,1,0,2
0,1269,5460,1,0,2
0,1270,3930,-1,0,2
0,1271,1000,1,0,2
0,1272,1630,1,0,2
0,1273,1970,1,0,2
0,1274,4500,1,0,2
0,1275,770,1,0,2
0,1276,2000,1,0,2
0,1277,2300,1,0,2
0,1278,2370,1,0,2
0,1279,1750,1,0,2
0,1280,3080,1,0,2
0,1281,1830,1,0,2
0,1282,2000,1,0,2
0,1283,1420,1,0,2
0,1284,6870,1,0,2
0,1285,520,1,0,2
0,1286,3260,1,0,2
0,1287,5190,1,0,2
0,1288,1390,1,0,2
0,1289,1140,1,0,2
0,1290,2570,1,0,2
0,1291,2750,-1,0,2
0,1292,1800,1,0,2
0,1293,800,1,0,2
0,1294,1650,1,0,2
0,1295,2040,1,0,2
0,1296,4840,1,0,2
0,1297,620,1,0,2
0,1298,1900,1,0,2
0,1299,2340,1,0,2
0,1300,1350,1,0,2
0,1301,2360,1,0,2
0,1302,4060,1,0,2
0,1303,650,1,0,2
0,1304,1220,1,0,2
0,1305,7050,1,0,2
0,1306,11750,1,0,2
0,1307,3780,-1,0,2
0,1308,4810,-1,0,2
0,1309,6240,1,0,2
0,1310,2680,1,0,2
0,1311,5310,1,0,2
0,1312,1130,1,0,2
0,1313,4910,1,0,2
0,1314,1820,1,0,2
0,1315,2610,1,0,2
0,1316,460,1,0,2
0,1317,1960,1,0,2
0,1318,1120,1,0,2
0,1319,990,1,0,2
0,1320,1200,1,0,2
0,1321,5600,1,0,2
0,1322,3270,1,0,2
0,1323,2130,1,0,2
0,1324,1060,1,0,2
0,1325,3150,1,0,2
0,1326,1890,1,0,2
0,1327,2950,-1,0,2
0,1328,1280,1,0,2
0,1329,4170,-1,0,2
0,1330,4470,1,0,2
0,1331,2710,1,0,2
0,1332,1560,1,0,2
0,1333,1790,1,0,2
0,1334,580,1,0,2
0,1335,1870,1,0,2
0,1336,3610,1,0,2
0,1337,920,1,0,2
0,1338,710,-1,0,2
0,1339,1140,1,0,2
0,1340,1360,1,0,2
0,1341,650,1,0,2
0,1342,3050,1,0,2
0,1343,1520,1,0,2
0,1344,1090,1,0,2
0,1345,800,1,0,2
0,1346,3270,1,0,2
0,1347,480,1,0,2
0,1348,1100,1,0,2
0,1349,2410,1,0,2
0,1350,1870,1,0,2
0,1351,290,-1,0,2
0,1352,1310,1,0,2
0,1353,950,1,0,2
0,1354,1430,1,0,2
0,1355,3040,-1,0,2
0,1356,700,1,0,2
0,1357,10290,1,0,2
0,1358,740,-1,0,2
0,1359,2790,1,0,2
0,1360,730,1,0,2
0,1361,1960,1,0,2
0,1362,2610,1,0,2
0,1363,1830,1,0,2
0,1364,1050,-1,0,2
0,1365,1820,1,0,2
0,1366,1630,1,0,2
0,1367,820,1,0,2
0,1368,3750,-1,0,2
0,1369,2370,1,0,2
0,1370,2510,1,0,2
0,1371,1650,1,0,2
0,1372,550,1,0,2
0,1373,740,1,0,2
0,1374,5200,-1,0,2
0,1375,13060,1,0,2
0,1376,1230,1,0,2
0,1377,800,1,0,2
0,1378,5050,1,0,2
0,1379,2620,-1,0,2
0,1380,2630,1,0,2
0,1381,2490,1,0,2
0,1382,2370,1,0,2
0,1383,2090,1,0,2
0,1384,600,-1,0,2
0,1385,700,1,0,2
0,1386,2640,1,0,2
0,1387,4920,1,0,2
0,1388,1820,1,0,2
0,1389,3070,-1,0,2
0,1390,830,-1,0,2
0,1391,1350,1,0,2
0,1392,910,1,0,2
0,1393,2500,1,0,2
0,1394,860,1,0,2
0,1395,630,-1,0,2
0,1396,2480,1,0,2
0,1397,1250,1,0,2
0,1398,1840,1,0,2
0,1399,3420,-1,0,2
0,1400,7290,1,0,2
0,1401,2720,1,0,2
0,1402,840,-1,0,2
0,1403,2100,-1,0,2
0,1404,1190,1,0,2
0,1405,4040,-1,0,2
0,1406,2920,1,0,2
0,1407,3590,1,0,2
0,1408,1890,1,0,2
0,1409,1290,1,0,2
0,1410,4420,-1,0,2
0,1411,1430,1,0,2
0,1412,420,1,0,2
0,1413,3770,1,0,2
0,1414,4320,1,0,2
0,1415,2250,1,0,2
0,1416,960,1,0,2
0,1417,1930,1,0,2
0,1418,2740,1,0,2
0,1419,3840,1,0,2
0,1420,690,-1,0,2
0,1421,1900,1,0,2
0,1422,1190,1,0,2
0,1423,840,1,0,2
0,1424,2380,1,0,2
0,1425,2080,1,0,2
0,1426,1420,1,0,2
0,1427,2590,1,0,2
0,1428,1350,1,0,2
0,1429,5830,1,0,2
0,1430,3870,1,0,2
0,1431,580,1,0,2
0,1432,1810,1,0,2
0,1433,4810,-1,0,2
0,1434,1270,1,0,2
0,1435,3610,1,0,2
0,1436,1090,1,0,2
0,1437,2350,1,0,2
0,1438,1430,1,0,2
0,1439,1870,1,0,2
0,1440,3640,-1,0,2
0,1441,1400,1,0,2
0,1442,1410,-1,0,2
0,1443,4410,1,0,2
0,1444,2920,1,0,2
0,1445,1180,1,0,2
0,1446,2370,1,0,2
0,1447,4910,1,0,2
0,1448,4470,-1,0,2
0,1449,1480,1,0,2
0,1450,2110,-1,0,2
0,1451,9300,1,0,2
0,1452,580,-1,0,2
0,1453,5560,1,0,2
0,1454,10890,1,0,2
0,1455,5150,1,0,2
0,1456,1180,1,0,2
0,1457,2980,1,0,2
0,1458,670,-1,0,2
0,1459,1230,1,0,2
0,1460,1840,1,0,2
0,1461,2990,1,0,2
0,1462,5270,1,0,2
0,1463,740,1,0,2
0,1464,1560,1,0,2
0,1465,2920,1,0,2
0,1466,5070,1,0,2
0,1467,420,1,0,2
0,1468,980,1,0,2
0,1469,3510,1,0,2
0,1470,600,1,0,2
0,1471,4810,-1,0,2
0,1472,2860,1,0,2
0,1473,3580,-1,0,2
0,1474,1410,1,0,2
0,1475,1260,1,0,2
0,1476,520,-1,0,2
0,1477,4930,-1,0,2
0,1478,3320,1,0,2
0,1479,1660,1,0,2
0,1480,1790,1,0,2
0,1481,2460,1,0,2
0,1482,2820,1,0,2
0,1483,1130,1,0,2
0,1484,2280,-1,0,2
0,1485,880,1,0,2
0,1486,7500,1,0,2
0,1487,4900,1,0,2
0,1488,1350,1,0,2
0,1489,3200,1,0,2
0,1490,2820,-1,0,2
0,1491,1310,1,0,2
0,1492,1790,1,0,2
0,1493,1150,1,0,2
0,1494,720,1,0,2
0,1495,1440,-1,0,2
0,1496,450,1,0,2
0,1497,4370,1,0,2
0,1498,3570,1,0,2
0,1499,1640,1,0,2
0,1500,580,1,0,3
0,1501,1790,1,0,3
0,1502,5950,1,0,3
0,1503,2100,-1,0,3
0,1504,1660,1,0,3
0,1505,1930,1,0,3
0,1506,3150,-1,0,3
0,1507,3110,-1,0,3
0,1508,1130,1,0,3
0,1509,1880,1,0,3
0,1510,3640,1,0,3
0,1511,1260,1,0,3
0,1512,2310,1,0,3
0,1513,4420,1,0,3
0,1514,4040,1,0,3
0,1515,2010,-1,0,3
0,1516,860,1,0,3
0,1517,2740,1,0,3
0,1518,4610,1,0,3
0,1519,1740,1,0,3
0,1520,2490,1,0,3
0,1521,2550,1,0,3
0,1522,3380,1,0,3
0,1523,590,1,0,3
0,1524,1840,1,0,3
0,1525,1230,1,0,3
0,1526,4040,1,0,3
0,1527,1020,-1,0,3
0,1528,1800,1,0,3
0,1529,2250,1,0,3
0,1530,3710,1,0,3
0,1531,890,1,0,3
0,1532,2590,1,0,3
0,1533,790,1,0,3
0,1534,1240,1,0,3
0,1535,910,1,0,3
0,1536,4890,1,0,3
0,1537,350,-1,0,3
0,1538,860,-1,0,3
0,1539,1260,1,0,3
0,1540,3450,1,0,3
0,1541,1840,1,0,3
0,1542,2270,1,0,3
0,1543,2170,1,0,3
0,1544,2370,1,0,3
0,1545,800,1,0,3
0,1546,2510,-1,0,3
0,1547,2760,1,0,3
0,1548,1760,1,0,3
0,1549,2190,1,0,3
0,1550,1540,1,0,3
0,1551,4100,1,0,3
0,1552,1870,1,0,3
0,1553,920,1,0,3
0,1554,4970,1,0,3
0,1555,2170,1,0,3
0,1556,1770,1,0,3
0,1557,1890,1,0,3
0,1558,1590,1,0,3
0,1559,3110,1,0,3
0,1560,500,1,0,3
0,1561,1030,1,0,3
0,1562,890,1,0,3
0,1563,4400,1,0,3
0,1564,2120,1,0,3
0,1565,740,1,0,3
0,1566,2510,1,0,3
0,1567,1000,-1,0,3
0,1568,2280,1,0,3
0,1569,2330,1,0,3
0,1570,950,-1,0,3
0,1571,360,1,0,3
0,1572,1470,1,0,3
0,1573,820,1,0,3
0,1574,3290,1,0,3
0,1575,2040,1,0,3
0,1576,1840,1,0,3
0,1577,1250,1,0,3
0,1578,1880,1,0,3
0,1579,1010,1,0,3
0,1580,2970,1,0,3
0,1581,2900,1,0,3
0,1582,1850,1,0,3
0,1583,1120,1,0,3
0,1584,1410,1,0,3
0,1585,1300,1,0,3
0,1586,1380,1,0,3
0,1587,550,1,0,3
0,1588,1010,1,0,3
0,1589,2130,1,0,3
0,1590,1440,-1,0,3
0,1591,2080,1,0,3
0,1592,1660,1,0,3
0,1593,2300,1,0,3
0,1594,2240,-1,0,3
0,1595,1370,1,0,3
0,1596,2240,1,0,3
0,1597,560,1,0,3
0,1598,1840,1,0,3
0,1599,1960,1,0,3
0,1600,920,1,0,3
0,1601,1600,1,0,3
0,1602,680,1,0,3
0,1603,2990,1,0,3
0,1604,1010,1,0,3
0,1605,3410,1,0,3
0,1606,1220,1,0,3
0,1607,880,1,0,3
0,1608,550,-1,0,3
0,1609,1910,1,0,3
0,1610,570,1,0,3
0,1611,3090,1,0,3
0,1612,5990,1,0,3
0,1613,1740,1,0,3
0,1614,5580,1,0,3
0,1615,1200,1,0,3
0,1616,1560,1,0,3
0,1617,1720,1,0,3
0,1618,1320,1,0,3
0,1619,2440,1,0,3
0,1620,600,1,0,3
0,1621,960,1,0,3
0,1622,2670,1,0,3
0,1623,2340,1,0,3
0,1624,3860,1,0,3
0,1625,1350,1,0,3
0,1626,1270,1,0,3
0,1627,970,1,0,3
0,1628,1290,1,0,3
0,1629,1660,1,0,3
0,1630,1830,1,0,3
0,1631,1460,-1,0,3
0,1632,860,1,0,3
0,1633,4890,1,0,3
0,1634,1330,1,0,3
0,1635,2840,1,0,3
0,1636,1080,1,0,3
0,1637,3940,1,0,3
0,1638,2700,1,0,3
0,1639,2110,1,0,3
0,1640,1930,1,0,3
0,1641,2670,1,0,3
0,1642,600,1,0,3
0,1643,1390,1,0,3
0,1644,1130,-1,0,3
0,1645,2890,1,0,3
0,1646,810,-1,0,3
0,1647,640,1,0,3
0,1648,3390,-1,0,3
0,1649,7120,1,0,3
0,1650,2680,1,0,3
0,1651,370,1,0,3
0,1652,2080,1,0,3
0,1653,1250,1,0,3
0,1654,350,1,0,3
0,1655,1730,1,0,3
0,1656,1930,1,0,3
0,1657,1870,1,0,3
0,1658,1370,1,0,3
0,1659,1020,1,0,3
0,1660,3030,1,0,3
0,1661,2610,1,0,3
0,1662,1860,1,0,3
0,1663,4020,1,0,3
0,1664,3130,1,0,3
0,1665,970,-1,0,3
0,1666,2020,1,0,3
0,1667,4660,1,0,3
0,1668,1480,1,0,3
0,1669,460,1,0,3
0,1670,1320,1,0,3
0,1671,1790,1,0,3
0,1672,2520,1,0,3
0,1673,1890,1,0,3
0,1674,680,1,0,3
0,1675,770,1,0,3
0,1676,1250,-1,0,3
0,1677,2980,1,0,3
0,1678,700,-1,0,3
0,1679,1330,1,0,3
0,1680,1150,1,0,3
0,1681,1810,1,0,3
0,1682,2200,1,0,3
0,1683,3450,1,0,3
0,1684,1760,1,0,3
0,1685,1490,1,0,3
0,1686,720,1,0,3
0,1687,3350,1,0,3
0,1688,820,1,0,3
0,1689,800,1,0,3
0,1690,1250,1,0,3
0,1691,1130,1,0,3
0,1692,3370,1,0,3
0,1693,1340,1,0,3
0,1694,1580,1,0,3
0,1695,1230,1,0,3
0,1696,1320,1,0,3
0,1697,1490,1,0,3
0,1698,1820,1,0,3
0,1699,1250,1,0,3
0,1700,4290,1,0,3
0,1701,430,1,0,3
0,1702,3350,1,0,3
0,1703,4040,1,0,3
0,1704,2670,1,0,3
0,1705,940,1,0,3
0,1706,1590,1,0,3
0,1707,400,1,0,3
0,1708,4870,1,0,3
0,1709,1800,1,0,3
0,1710,2070,1,0,3
0,1711,1430,1,0,3
0,1712,2060,1,0,3
0,1713,2590,1,0,3
0,1714,630,1,0,3
0,1715,1130,1,0,3
0,1716,2220,1,0,3
0,1717,1320,1,0,3
0,1718,800,1,0,3
0,1719,2490,1,0,3
0,1720,1730,-1,0,3
0,1721,2140,1,0,3
0,1722,2790,1,0,3
0,1723,5690,1,0,3
0,1724,1590,1,0,3
0,1725,3780,1,0,3
0,1726,3700,1,0,3
0,1727,850,1,0,3
0,1728,820,-1,0,3
0,1729,1500,1,0,3
0,1730,3210,1,0,3
0,1731,820,-1,0,3
0,1732,1910,1,0,3
0,1733,1790,1,0,3
0,1734,2420,1,0,3
0,1735,500,1,0,3
0,1736,1630,1,0,3
0,1737,1640,1,0,3
0,1738,810,1,0,3
0,1739,770,-1,0,3
0,1740,1370,1,0,3
0,1741,2100,1,0,3
0,1742,1780,1,0,3
0,1743,2210,1,0,3
0,1744,4460,1,0,3
0,1745,1940,1,0,3
0,1746,2890,1,0,3
0,1747,1390,-1,0,3
0,1748,480,1,0,3
0,1749,4400,1,0,3
0,1750,2870,1,0,3
0,1751,1310,1,0,3
0,1752,6620,1,0,3
0,1753,1550,1,0,3
0,1754,1360,1,0,3
0,1755,880,1,0,3
0,1756,3160,1,0,3
0,1757,2020,1,0,3
0,1758,2020,1,0,3
0,1759,6050,1,0,3
0,1760,840,1,0,3
0,1761,3800,1,0,3
0,1762,850,-1,0,3
0,1763,2860,1,0,3
0,1764,1220,1,0,3
0,1765,2520,1,0,3
0,1766,1550,1,0,3
0,1767,1120,1,0,3
0,1768,2570,1,0,3
0,1769,390,1,0,3
0,1770,1360,-1,0,3
0,1771,2230,1,0,3
0,1772,3410,1,0,3
0,1773,730,1,0,3
0,1774,1430,1,0,3
0,1775,1790,1,0,3
0,1776,810,1,0,3
0,1777,600,-1,0,3
0,1778,1400,1,0,3
0,1779,4020,1,0,3
0,1780,4040,1,0,3
0,1781,5530,1,0,3
0,1782,2850,1,0,3
0,1783,1200,1,0,3
0,1784,3830,1,0,3
0,1785,600,1,0,3
0,1786,1060,1,0,3
0,1787,570,-1,0,3
0,1788,3980,1,0,3
0,1789,2430,1,0,3
0,1790,3530,1,0,3
0,1791,2630,1,0,3
0,1792,1870,1,0,3
0,1793,620,1,0,3
0,1794,3130,1,0,3
0,1795,1880,1,0,3
0,1796,2810,1,0,3
0,1797,1410,1,0,3
0,1798,3350,1,0,3
0,1799,1990,1,0,3
0,1800,5440,-1,1,0
0,1801,1020,-1,1,0
0,1802,2480,1,1,0
0,1803,840,-1,1,0
0,1804,750,1,1,0
0,1805,450,1,1,0
0,1806,1920,1,1,0
0,1807,2460,1,1,0
0,1808,990,-1,1,0
0,1809,2890,-1,1,0
0,1810,2080,1,1,0
0,1811,960,-1,1,0
0,1812,5550,-1,1,0
0,1813,2330,1,1,0
0,1814,670,-1,1,0
0,1815,8260,1,1,0
0,1816,2810,1,1,0
0,1817,2360,-1,1,0
0,1818,2880,1,1,0
0,1819,7400,-1,1,0
0,1820,1290,1,1,0
0,1821,1230,-1,1,0
0,1822,1110,1,1,0
0,1823,2940,1,1,0
0,1824,610,-1,1,0
0,1825,2030,-1,1,0
0,1826,700,1,1,0
0,1827,1730,-1,1,0
0,1828,3420,-1,1,0
0,1829,1040,1,1,0
0,1830,1530,1,1,0
0,1831,1550,-1,1,0
0,1832,1950,1,1,0
0,1833,4780,-1,1,0
0,1834,790,-1,1,0
0,1835,1250,-1,1,0
0,1836,7200,1,1,0
0,1837,670,-1,1,0
0,1838,10570,1,1,0
0,1839,1180,-1,1,0
0,1840,8060,-1,1,0
0,1841,530,-1,1,0
0,1842,4140,1,1,0
0,1843,1920,1,1,0
0,1844,3630,-1,1,0
0,1845,1110,1,1,0
0,1846,2030,1,1,0
0,1847,6510,1,1,0
0,1848,1680,1,1,0
0,1849,5390,1,1,0
0,1850,10110,-1,1,0
0,1851,8610,1,1,0
0,1852,2250,-1,1,0
0,1853,2730,1,1,0
0,1854,2400,-1,1,0
0,1855,4870,-1,1,0
0,1856,2150,-1,1,0
0,1857,6360,1,1,0
0,1858,3250,1,1,0
0,1859,5450,1,1,0
0,1860,2940,1,1,0
0,1861,2680,-1,1,0
0,1862,3450,-1,1,0
0,1863,2550,-1,1,0
0,1864,1840,-1,1,0
0,1865,950,1,1,0
0,1866,2690,-1,1,0
0,1867,2540,-1,1,0
0,1868,2270,1,1,0
0,1869,8110,-1,1,0
0,1870,2630,-1,1,0
0,1871,3710,-1,1,0
0,1872,3800,-1,1,0
0,1873,4900,-1,1,0
0,1874,970,1,1,0
0,1875,500,-1,1,0
0,1876,4010,-1,1,0
0,1877,3360,-1,1,0
0,1878,6850,-1,1,0
0,1879,6770,1,1,0
0,1880,3720,-1,1,0
0,1881,260,-1,1,0
0,1882,560,-1,1,0
0,1883,2180,1,1,0
0,1884,950,1,1,0
0,1885,2270,1,1,0
0,1886,850,-1,1,0
0,1887,6950,-1,1,0
0,1888,1350,-1,1,0
0,1889,940,-1,1,0
0,1890,960,-1,1,0
0,1891,850,-1,1,0
0,1892,830,-1,1,0
0,1893,1400,1,1,0
0,1894,2350,-1,1,0
0,1895,2470,-1,1,0
0,1896,3960,-1,1,0
0,1897,1930,-1,1,0
0,1898,890,-1,1,0
0,1899,3040,1,1,0
0,1900,1060,1,1,0
0,1901,4610,1,1,0
0,1902,13120,-1,1,0
0,1903,1240,1,1,0
0,1904,6160,1,1,0
0,1905,650,1,1,0
0,1906,4110,-1,1,0
0,1907,1620,1,1,0
0,1908,880,-1,1,0
0,1909,1320,1,1,0
0,1910,2300,-1,1,0
0,1911,3020,1,1,0
0,1912,1550,-1,1,0
0,1913,960,1,1,0
0,1914,2210,-1,1,0
0,1915,1770,-1,1,0
0,1916,2530,-1,1,0
0,1917,1090,1,1,0
0,1918,1620,1,1,0
0,1919,2220,-1,1,0
0,1920,2080,-1,1,0
0,1921,1030,-1,1,0
0,1922,1040,-1,1,0
0,1923,1540,1,1,0
0,1924,1470,-1,1,0
0,1925,1640,1,1,0
0,1926,840,-1,1,0
0,1927,950,-1,1,0
0,1928,5860,1,1,0
0,1929,8580,-1,1,0
0,1930,3540,-1,1,0
0,1931,2630,1,1,0
0,1932,3600,-1,1,0
0,1933,1630,1,1,0
0,1934,660,1,1,0
0,1935,5200,1,1,0
0,1936,1150,-1,1,0
0,1937,2890,1,1,0
0,1938,520,-1,1,0
0,1939,4270,-1,1,0
0,1940,4110,-1,1,0
0,1941,4760,-1,1,0
0,1942,4250,-1,1,0
0,1943,2660,-1,1,0
0,1944,1920,-1,1,0
0,1945,580,-1,1,0
0,1946,850,-1,1,0
0,1947,2290,-1,1,0
0,1948,2700,-1,1,0
0,1949,4460,-1,1,0
0,1950,4160,-1,1,0
0,1951,1930,1,1,0
0,1952,980,-1,1,0
0,1953,3890,-1,1,0
0,1954,560,-1,1,0
0,1955,2410,1,1,0
0,1956,5030,-1,1,0
0,1957,2010,-1,1,0
0,1958,5790,-1,1,0
0,1959,3640,-1,1,0
0,1960,7220,-1,1,0
0,1961,1350,1,1,0
0,1962,1610,-1,1,0
0,1963,1760,-1,1,0
0,1964,4370,-1,1,0
0,1965,3180,1,1,0
0,1966,2650,-1,1,0
0,1967,1170,1,1,0
0,1968,3870,1,1,0
0,1969,1850,-1,1,0
0,1970,2190,-1,1,0
0,1971,8430,-1,1,0
0,1972,1350,-1,1,0
0,1973,850,-1,1,0
0,1974,2790,-1,1,0
0,1975,5430,-1,1,0
0,1976,3620,1,1,0
0,1977,430,-1,1,0
0,1978,3130,1,1,0
0,1979,1880,1,1,0
0,1980,1550,1,1,0
0,1981,6240,-1,1,0
0,1982,440,1,1,0
0,1983,2810,-1,1,0
0,1984,4900,1,1,0
0,1985,720,1,1,0
0,1986,4040,1,1,0
0,1987,2460,1,1,0
0,1988,3340,-1,1,0
0,1989,5980,-1,1,0
0,1990,2860,1,1,0
0,1991,1790,-1,1,0
0,1992,670,1,1,0
0,1993,1030,-1,1,0
0,1994,4390,-1,1,0
0,1995,1560,-1,1,0
0,1996,2910,-1,1,0
0,1997,1100,-1,1,0
0,1998,930,-1,1,0
0,1999,1340,-1,1,0
0,2000,13480,1,1,0
0,2001,3250,1,1,0
0,2002,2630,-1,1,0
0,2003,2270,-1,1,0
0,2004,2730,1,1,0
0,2005,1080,-1,1,0
0,2006,6660,-1,1,0
0,2007,4000,1,1,0
0,2008,2160,1,1,0
0,2009,2930,1,1,0
0,2010,6480,-1,1,0
0,2011,1130,1,1,0
0,2012,5550,-1,1,0
0,2013,2360,1,1,0
0,2014,1310,-1,1,0
0,2015,2850,-1,1,0
0,2016,3920,1,1,0
0,2017,6550,-1,1,0
0,2018,3220,1,1,0
0,2019,6160,1,1,0
0,2020,2970,-1,1,0
0,2021,6630,-1,1,0
0,2022,650,1,1,0
0,2023,2430,1,1,0
0,2024,4250,-1,1,0
0,2025,470,1,1,0
0,2026,1270,-1,1,0
0,2027,1380,-1,1,0
0,2028,3380,-1,1,0
0,2029,1330,1,1,0
0,2030,4430,-1,1,0
0,2031,2100,-1,1,0
0,2032,2980,-1,1,0
0,2033,1000,1,1,0
0,2034,5160,-1,1,0
0,2035,1070,-1,1,0
0,2036,7390,-1,1,0
0,2037,1280,-1,1,0
0,2038,6480,-1,1,0
0,2039,4150,-1,1,0
0,2040,2810,-1,1,0
0,2041,2000,-1,1,0
0,2042,4130,1,1,0
0,2043,7110,-1,1,0
0,2044,3290,-1,1,0
0,2045,2250,-1,1,0
0,2046,770,-1,1,0
0,2047,1810,-1,1,0
0,2048,1070,1,1,0
0,2049,1570,-1,1,0
0,2050,2580,-1,1,0
0,2051,800,-1,1,0
0,2052,800,-1,1,0
0,2053,1170,1,1,0
0,2054,730,-1,1,0
0,2055,4650,1,1,0
0,2056,910,-1,1,0
0,2057,5840,1,1,0
0,2058,1160,-1,1,0
0,2059,1180,1,1,0
0,2060,3100,-1,1,0
0,2061,2030,-1,1,0
0,2062,9350,-1,1,0
0,2063,2900,-1,1,0
0,2064,390,-1,1,0
0,2065,1400,-1,1,0
0,2066,2420,-1,1,0
0,2067,960,-1,1,0
0,2068,2370,-1,1,0
0,2069,5100,-1,1,0
0,2070,1690,-1,1,0
0,2071,2360,1,1,0
0,2072,3230,1,1,0
0,2073,1760,-1,1,0
0,2074,2130,-1,1,0
0,2075,3600,1,1,0
0,2076,1120,1,1,0
0,2077,2860,-1,1,0
0,2078,2000,1,1,0
0,2079,660,-1,1,0
0,2080,870,-1,1,0
0,2081,2020,-1,1,0
0,2082,4670,-1,1,0
0,2083,3550,-1,1,0
0,2084,1600,-1,1,0
0,2085,3480,1,1,0
0,2086,6500,1,1,0
0,2087,1330,1,1,0
0,2088,6320,-1,1,0
0,2089,3510,-1,1,0
0,2090,2040,1,1,0
0,2091,2860,1,1,0
0,2092,1650,1,1,0
0,2093,1540,1,1,0
0,2094,690,-1,1,0
0,2095,2940,-1,1,0
0,2096,7630,-1,1,0
0,2097,1150,-1,1,0
0,2098,2720,1,1,0
0,2099,1440,1,1,0
0,2100,4110,1,1,0
0,2101,1920,1,1,0
0,2102,1320,-1,1,0
0,2103,2230,-1,1,0
0,2104,2570,1,1,0
0,2105,870,1,1,0
0,2106,3700,-1,1,0
0,2107,2860,1,1,0
0,2108,820,-1,1,0
0,2109,4340,1,1,0
0,2110,2690,-1,1,0
0,2111,4050,-1,1,0
0,2112,330,-1,1,0
0,2113,760,-1,1,0
0,2114,3920,-1,1,0
0,2115,1360,1,1,0
0,2116,2230,-1,1,0
0,2117,580,-1,1,0
0,2118,640,-1,1,0
0,2119,950,-1,1,0
0,2120,2610,-1,1,0
0,2121,1690,-1,1,0
0,2122,1860,-1,1,0
0,2123,880,-1,1,0
0,2124,3500,-1,1,0
0,2125,1550,1,1,0
0,2126,4610,1,1,0
0,2127,2620,-1,1,0
0,2128,3750,-1,1,0
0,2129,2420,-1,1,0
0,2130,1580,-1,1,0
0,2131,1060,-1,1,0
0,2132,990,-1,1,0
0,2133,810,-1,1,0
0,2134,790,-1,1,0
0,2135,1280,-1,1,0
0,2136,880,1,1,0
0,2137,3410,-1,1,0
0,2138,3750,1,1,0
0,2139,2180,-1,1,0
0,2140,1540,1,1,0
0,2141,4710,-1,1,0
0,2142,1360,-1,1,0
0,2143,1000,-1,1,0
0,2144,1360,-1,1,0
0,2145,7890,-1,1,0
0,2146,1360,-1,1,0
0,2147,1210,-1,1,0
0,2148,1600,1,1,0
0,2149,2910,-1,1,0
0,2150,1930,1,1,0
0,2151,3210,-1,1,0
0,2152,1920,-1,1,0
0,2153,1600,-1,1,0
0,2154,1760,1,1,0
0,2155,770,-1,1,0
0,2156,5750,-1,1,0
0,2157,1360,-1,1,0
0,2158,820,-1,1,0
0,2159,9490,-1,1,0
0,2160,1590,1,1,0
0,2161,3660,-1,1,0
0,2162,2060,-1,1,0
0,2163,2620,-1,1,0
0,2164,300,-1,1,0
0,2165,3340,-1,1,0
0,2166,6630,1,1,0
0,2167,4770,1,1,0
0,2168,3120,-1,1,0
0,2169,3370,-1,1,0
0,2170,1680,1,1,0
0,2171,2780,-1,1,0
0,2172,2350,-1,1,0
0,2173,1210,-1,1,0
0,2174,1700,1,1,0
0,2175,2540,-1,1,0
0,2176,3850,-1,1,0
0,2177,2160,-1,1,0
0,2178,1430,-1,1,0
0,2179,730,-1,1,0
0,2180,660,-1,1,0
0,2181,1680,-1,1,0
0,2182,12530,-1,1,0
0,2183,1340,-1,1,0
0,2184,1770,1,1,0
0,2185,1440,-1,1,0
0,2186,5560,-1,1,0
0,2187,3030,-1,1,0
0,2188,2110,-1,1,0
0,2189,850,1,1,0
0,2190,2860,-1,1,0
0,2191,690,-1,1,0
0,2192,2880,-1,1,0
0,2193,1520,-1,1,0
0,2194,540,-1,1,0
0,2195,1350,-1,1,0
0,2196,2240,-1,1,0
0,2197,2250,-1,1,0
0,2198,630,-1,1,0
0,2199,540,-1,1,0
0,2200,4380,1,1,0
0,2201,1400,1,1,0
0,2202,930,1,1,0
0,2203,4370,1,1,0
0,2204,1340,-1,1,0
0,2205,8310,-1,1,0
0,2206,2160,-1,1,0
0,2207,6670,1,1,0
0,2208,1480,-1,1,0
0,2209,880,-1,1,0
0,2210,1940,-1,1,0
0,2211,11120,1,1,0
0,2212,910,-1,1,0
0,2213,9590,1,1,0
0,2214,2150,1,1,0
0,2215,8450,1,1,0
0,2216,3500,-1,1,0
0,2217,3410,-1,1,0
0,2218,4040,-1,1,0
0,2219,2230,-1,1,0
0,2220,5990,-1,1,0
0,2221,3080,-1,1,0
0,2222,1920,1,1,0
0,2223,1510,-1,1,0
0,2224,500,-1,1,0
0,2225,920,-1,1,0
0,2226,7870,-1,1,0
0,2227,1050,-1,1,0
0,2228,1610,-1,1,0
0,2229,3890,-1,1,0
0,2230,1770,1,1,0
0,2231,3420,-1,1,0
0,2232,2180,1,1,0
0,2233,2780,-1,1,0
0,2234,1780,-1,1,0
0,2235,860,-1,1,0
0,2236,880,-1,1,0
0,2237,2090,1,1,0
0,2238,960,-1,1,0
0,2239,3640,-1,1,0
0,2240,4130,1,1,0
0,2241,1110,1,1,0
0,2242,700,1,1,0
0,2243,950,-1,1,0
0,2244,600,1,1,0
0,2245,2870,-1,1,0
0,2246,890,-1,1,0
0,2247,4830,-1,1,0
0,2248,4170,-1,1,0
0,2249,6570,1,1,0
0,2250,6930,1,1,0
0,2251,1020,1,1,0
0,2252,1960,-1,1,0
0,2253,2340,-1,1,0
0,2254,3200,-1,1,0
0,2255,2250,1,1,0
0,2256,7980,1,1,0
0,2257,15380,-1,1,0
0,2258,3440,-1,1,0
0,2259,1230,1,1,0
0,2260,720,-1,1,0
0,2261,1890,-1,1,0
0,2262,5590,-1,1,0
0,2263,5440,-1,1,0
0,2264,4870,-1,1,0
0,2265,3700,-1,1,0
0,2266,3370,-1,1,0
0,2267,1410,-1,1,0
0,2268,4630,1,1,0
0,2269,4390,-1,1,0
0,2270,3800,-1,1,0
0,2271,2360,1,1,0
0,2272,3620,-1,1,0
0,2273,2530,-1,1,0
0,2274,2390,-1,1,0
0,2275,8530,-1,1,0
0,2276,2970,1,1,0
0,2277,2460,-1,1,0
0,2278,4750,1,1,0
0,2279,1060,-1,1,0
0,2280,6960,-1,1,0
0,2281,5920,-1,1,0
0,2282,6710,-1,1,0
0,2283,7920,-1,1,0
0,2284,310,-1,1,0
0,2285,2210,-1,1,0
0,2286,910,-1,1,0
0,2287,2520,-1,1,0
0,2288,4420,-1,1,0
0,2289,1100,1,1,0
0,2290,2760,-1,1,0
0,2291,720,1,1,0
0,2292,4510,1,1,0
0,2293,2930,-1,1,0
0,2294,2500,-1,1,0
0,2295,3480,-1,1,0
0,2296,5480,-1,1,0
0,2297,2680,-1,1,0
0,2298,1590,-1,1,0
0,2299,2800,-1,1,0
0,2300,3640,1,1,0
0,2301,960,1,1,0
0,2302,4310,1,1,0
0,2303,1090,1,1,0
0,2304,11460,-1,1,0
0,2305,1080,-1,1,0
0,2306,8330,-1,1,0
0,2307,830,-1,1,0
0,2308,2840,-1,1,0
0,2309,2310,-1,1,0
0,2310,1860,-1,1,0
0,2311,950,-1,1,0
0,2312,1070,-1,1,0
0,2313,5090,-1,1,0
0,2314,3980,-1,1,0
0,2315,960,-1,1,0
0,2316,2850,-1,1,0
0,2317,760,-1,1,0
0,2318,3180,-1,1,0
0,2319,3100,-1,1,0
0,2320,540,-1,1,0
0,2321,4150,-1,1,0
0,2322,2830,-1,1,0
0,2323,4510,-1,1,0
0,2324,1820,1,1,0
0,2325,2800,1,1,0
0,2326,1950,1,1,0
0,2327,8130,-1,1,0
0,2328,8070,-1,1,0
0,2329,4380,-1,1,0
0,2330,7710,-1,1,0
0,2331,1440,-1,1,0
0,2332,9980,1,1,0
0,2333,7170,1,1,0
0,2334,9680,-1,1,0
0,2335,4830,1,1,0
0,2336,3710,1,1,0
0,2337,3830,-1,1,0
0,2338,4020,-1,1,0
0,2339,2180,-1,1,0
0,2340,600,-1,1,0
0,2341,5660,-1,1,0
0,2342,830,-1,1,0
0,2343,1170,1,1,0
0,2344,890,-1,1,0
0,2345,2490,-1,1,0
0,2346,1550,-1,1,0
0,2347,3240,-1,1,0
0,2348,320,-1,1,0
0,2349,1980,1,1,0
0,2350,3860,-1,1,0
0,2351,2560,-1,1,0
0,2352,3140,1,1,0
0,2353,2000,-1,1,0
0,2354,4220,-1,1,0
0,2355,290,-1,1,0
0,2356,4520,1,1,0
0,2357,810,-1,1,0
0,2358,1250,1,1,0
0,2359,1780,-1,1,0
0,2360,490,1,1,0
0,2361,1530,-1,1,0
0,2362,5020,1,1,0
0,2363,1350,1,1,0
0,2364,800,-1,1,0
0,2365,950,1,1,0
0,2366,790,-1,1,0
0,2367,1410,1,1,0
0,2368,1920,1,1,0
0,2369,1330,1,1,0
0,2370,4290,1,1,0
0,2371,790,-1,1,0
0,2372,1430,1,1,0
0,2373,4350,-1,1,0
0,2374,890,-1,1,0
0,2375,1450,-1,1,0
0,2376,2580,-1,1,0
0,2377,620,-1,1,0
0,2378,5210,1,1,0
0,2379,1380,1,1,0
0,2380,8510,-1,1,0
0,2381,1740,-1,1,0
0,2382,1410,-1,1,0
0,2383,2300,1,1,0
0,2384,670,1,1,0
0,2385,6150,1,1,0
0,2386,4110,-1,1,0
0,2387,3690,-1,1,0
0,2388,1020,-1,1,0
0,2389,3490,-1,1,0
0,2390,2870,-1,1,0
0,2391,3150,1,1,0
0,2392,3990,1,1,0
0,2393,1460,1,1,0
0,2394,1060,-1,1,0
0,2395,5930,-1,1,0
0,2396,5460,-1,1,0
0,2397,1220,-1,1,0
0,2398,2320,-1,1,0
0,2399,4620,-1,1,0
0,2400,3810,-1,1,1
0,2401,480,1,1,1
0,2402,2550,1,1,1
0,2403,3720,-1,1,1
0,2404,2890,1,1,1
0,2405,9870,-1,1,1
0,2406,2520,-1,1,1
0,2407,3470,1,1,1
0,2408,1860,1,1,1
0,2409,820,1,1,1
0,2410,4280,1,1,1
0,2411,680,-1,1,1
0,2412,3510,-1,1,1
0,2413,2560,-1,1,1
0,2414,1330,1,1,1
0,2415,1860,-1,1,1
0,2416,2250,1,1,1
0,2417,3870,-1,1,1
0,2418,1140,1,1,1
0,2419,2320,-1,1,1
0,2420,1280,-1,1,1
0,2421,1970,-1,1,1
0,2422,1740,-1,1,1
0,2423,2570,-1,1,1
0,2424,3210,-1,1,1
0,2425,840,-1,1,1
0,2426,1690,-1,1,1
0,2427,2830,1,1,1
0,2428,1470,1,1,1
0,2429,8360,1,1,1
0,2430,6190,-1,1,1
0,2431,2380,-1,1,1
0,2432,3990,-1,1,1
0,2433,1930,1,1,1
0,2434,3060,1,1,1
0,2435,1410,1,1,1
0,2436,1640,1,1,1
0,2437,3480,1,1,1
0,2438,1680,-1,1,1
0,2439,4720,1,1,1
0,2440,800,-1,1,1
0,2441,3940,1,1,1
0,2442,610,-1,1,1
0,2443,1980,-1,1,1
0,2444,1540,1,1,1
0,2445,8210,-1,1,1
0,2446,560,-1,1,1
0,2447,2750,1,1,1
0,2448,3360,-1,1,1
0,2449,3710,-1,1,1
0,2450,830,-1,1,1
0,2451,10340,1,1,1
0,2452,1060,1,1,1
0,2453,1110,-1,1,1
0,2454,1590,1,1,1
0,2455,1900,1,1,1
0,2456,7040,-1,1,1
0,2457,2980,1,1,1
0,2458,4150,1,1,1
0,2459,3380,-1,1,1
0,2460,860,-1,1,1
0,2461,2430,-1,1,1
0,2462,550,1,1,1
0,2463,8360,1,1,1
0,2464,1110,1,1,1
0,2465,2940,-1,1,1
0,2466,960,-1,1,1
0,2467,860,-1,1,1
0,2468,9810,1,1,1
0,2469,1700,1,1,1
0,2470,4330,1,1,1
0,2471,1460,1,1,1
0,2472,4940,-1,1,1
0,2473,3530,1,1,1
0,2474,2250,1,1,1
0,2475,9810,-1,1,1
0,2476,2350,-1,1,1
0,2477,1470,1,1,1
0,2478,4980,-1,1,1
0,2479,5750,-1,1,1
0,2480,1560,1,1,1
0,2481,2420,1,1,1
0,2482,1590,1,1,1
0,2483,3990,-1,1,1
0,2484,780,1,1,1
0,2485,5080,1,1,1
0,2486,2570,-1,1,1
0,2487,5640,-1,1,1
0,2488,4060,-1,1,1
0,2489,2570,-1,1,1
0,2490,7880,-1,1,1
0,2491,3370,-1,1,1
0,2492,1020,-1,1,1
0,2493,7310,1,1,1
0,2494,3210,-1,1,1
0,2495,1360,-1,1,1
0,2496,1210,-1,1,1
0,2497,2540,1,1,1
0,2498,1710,1,1,1
0,2499,1000,1,1,1
0,2500,1030,1,1,1
0,2501,1850,-1,1,1
0,2502,430,-1,1,1
0,2503,2370,1,1,1
0,2504,5830,-1,1,1
0,2505,2980,-1,1,1
0,2506,380,1,1,1
0,2507,3030,1,1,1
0,2508,1430,-1,1,1
0,2509,5410,1,1,1
0,2510,2670,1,1,1
0,2511,6270,1,1,1
0,2512,500,-1,1,1
0,2513,4450,-1,1,1
0,2514,910,-1,1,1
0,2515,350,-1,1,1
0,2516,4390,1,1,1
0,2517,2400,1,1,1
0,2518,800,-1,1,1
0,2519,750,1,1,1
0,2520,2720,-1,1,1
0,2521,4210,1,1,1
0,2522,5380,-1,1,1
0,2523,6410,-1,1,1
0,2524,9780,-1,1,1
0,2525,1500,-1,1,1
0,2526,2090,-1,1,1
0,2527,1440,1,1,1
0,2528,4290,1,1,1
0,2529,2600,1,1,1
0,2530,2300,1,1,1
0,2531,3670,1,1,1
0,2532,2020,1,1,1
0,2533,4400,-1,1,1
0,2534,1790,1,1,1
0,2535,5500,1,1,1
0,2536,1050,-1,1,1
0,2537,2820,-1,1,1
0,2538,1440,-1,1,1
0,2539,2300,-1,1,1
0,2540,1300,-1,1,1
0,2541,1090,-1,1,1
0,2542,6180,-1,1,1
0,2543,2550,1,1,1
0,2544,5170,-1,1,1
0,2545,3190,-1,1,1
0,2546,850,1,1,1
0,2547,410,-1,1,1
0,2548,680,1,1,1
0,2549,5410,1,1,1
0,2550,1390,-1,1,1
0,2551,1440,-1,1,1
0,2552,550,1,1,1
0,2553,6420,-1,1,1
0,2554,3820,1,1,1
0,2555,800,1,1,1
0,2556,2320,1,1,1
0,2557,1640,-1,1,1
0,2558,2180,-1,1,1
0,2559,3270,1,1,1
0,2560,560,-1,1,1
0,2561,630,-1,1,1
0,2562,5820,1,1,1
0,2563,8760,-1,1,1
0,2564,4390,-1,1,1
0,2565,680,-1,1,1
0,2566,820,-1,1,1
0,2567,780,1,1,1
0,2568,1530,-1,1,1
0,2569,330,1,1,1
0,2570,4890,-1,1,1
0,2571,2970,1,1,1
0,2572,880,-1,1,1
0,2573,6300,-1,1,1
0,2574,2960,1,1,1
0,2575,2180,-1,1,1
0,2576,1990,-1,1,1
0,2577,2650,-1,1,1
0,2578,5480,1,1,1
0,2579,3240,-1,1,1
0,2580,2290,1,1,1
0,2581,5090,1,1,1
0,2582,920,-1,1,1
0,2583,2150,1,1,1
0,2584,1560,1,1,1
0,2585,7120,-1,1,1
0,2586,4290,1,1,1
0,2587,1100,-1,1,1
0,2588,9980,1,1,1
0,2589,830,1,1,1
0,2590,1040,1,1,1
0,2591,1800,1,1,1
0,2592,3170,-1,1,1
0,2593,1870,1,1,1
0,2594,3960,1,1,1
0,2595,1090,1,1,1
0,2596,6320,-1,1,1
0,2597,4000,1,1,1
0,2598,4740,1,1,1
0,2599,4460,-1,1,1
0,2600,790,-1,1,1
0,2601,1570,1,1,1
0,2602,1070,-1,1,1
0,2603,5610,-1,1,1
0,2604,1350,-1,1,1
0,2605,320,-1,1,1
0,2606,620,-1,1,1
0,2607,6060,-1,1,1
0,2608,2650,1,1,1
0,2609,1630,-1,1,1
0,2610,1020,1,1,1
0,2611,1680,1,1,1
0,2612,1850,1,1,1
0,2613,1340,1,1,1
0,2614,2410,1,1,1
0,2615,950,-1,1,1
0,2616,2150,-1,1,1
0,2617,2190,1,1,1
0,2618,1700,-1,1,1
0,2619,5210,-1,1,1
0,2620,2450,-1,1,1
0,2621,1920,1,1,1
0,2622,1620,1,1,1
0,2623,4480,-1,1,1
0,2624,2640,-1,1,1
0,2625,8050,1,1,1
0,2626,940,-1,1,1
0,2627,750,1,1,1
0,2628,3130,-1,1,1
0,2629,5980,-1,1,1
0,2630,1420,1,1,1
0,2631,1080,-1,1,1
0,2632,3500,1,1,1
0,2633,1100,1,1,1
0,2634,1000,-1,1,1
0,2635,2220,1,1,1
0,2636,4410,-1,1,1
0,2637,790,1,1,1
0,2638,5960,1,1,1
0,2639,1460,-1,1,1
0,2640,790,1,1,1
0,2641,3810,-1,1,1
0,2642,4750,-1,1,1
0,2643,2320,-1,1,1
0,2644,3460,-1,1,1
0,2645,4290,1,1,1
0,2646,5400,-1,1,1
0,2647,2050,1,1,1
0,2648,880,1,1,1
0,2649,1780,-1,1,1
0,2650,2620,1,1,1
0,2651,1520,1,1,1
0,2652,470,-1,1,1
0,2653,4450,1,1,1
0,2654,9890,1,1,1
0,2655,4570,-1,1,1
0,2656,4770,-1,1,1
0,2657,1240,1,1,1
0,2658,2130,-1,1,1
0,2659,1460,1,1,1
0,2660,910,-1,1,1
0,2661,4510,-1,1,1
0,2662,1530,-1,1,1
0,2663,780,-1,1,1
0,2664,1010,-1,1,1
0,2665,590,1,1,1
0,2666,1450,1,1,1
0,2667,900,1,1,1
0,2668,3490,1,1,1
0,2669,7550,-1,1,1
0,2670,2970,1,1,1
0,2671,800,-1,1,1
0,2672,6270,-1,1,1
0,2673,2920,-1,1,1
0,2674,2830,-1,1,1
0,2675,1400,1,1,1
0,2676,330,1,1,1
0,2677,3510,1,1,1
0,2678,720,1,1,1
0,2679,1230,-1,1,1
0,2680,3340,-1,1,1
0,2681,2350,-1,1,1
0,2682,1290,1,1,1
0,2683,1560,-1,1,1
0,2684,3120,-1,1,1
0,2685,2490,-1,1,1
0,2686,1420,1,1,1
0,2687,2530,-1,1,1
0,2688,3850,1,1,1
0,2689,1830,1,1,1
0,2690,5500,-1,1,1
0,2691,670,1,1,1
0,2692,2020,-1,1,1
0,2693,1860,-1,1,1
0,2694,1710,1,1,1
0,2695,1000,-1,1,1
0,2696,1740,-1,1,1
0,2697,5310,-1,1,1
0,2698,920,1,1,1
0,2699,7500,-1,1,1
0,2700,1310,1,1,2
0,2701,1000,1,1,2
0,2702,5660,1,1,2
0,2703,5120,1,1,2
0,2704,980,1,1,2
0,2705,1520,-1,1,2
0,2706,5180,1,1,2
0,2707,2560,-1,1,2
0,2708,1790,1,1,2
0,2709,570,-1,1,2
0,2710,2180,1,1,2
0,2711,3380,-1,1,2
0,2712,3680,1,1,2
0,2713,1600,-1,1,2
0,2714,4000,1,1,2
0,2715,3780,1,1,2
0,2716,6970,1,1,2
0,2717,1040,1,1,2
0,2718,1340,-1,1,2
0,2719,1510,-1,1,2
0,2720,2310,1,1,2
0,2721,2940,1,1,2
0,2722,4310,1,1,2
0,2723,1180,1,1,2
0,2724,360,-1,1,2
0,2725,4700,1,1,2
0,2726,1590,1,1,2
0,2727,2470,1,1,2
0,2728,7000,-1,1,2
0,2729,5190,1,1,2
0,2730,5500,1,1,2
0,2731,1050,1,1,2
0,2732,4820,1,1,2
0,2733,940,-1,1,2
0,2734,920,1,1,2
0,2735,3070,1,1,2
0,2736,1990,1,1,2
0,2737,1760,1,1,2
0,2738,3110,-1,1,2
0,2739,4540,1,1,2
0,2740,1630,-1,1,2
0,2741,780,1,1,2
0,2742,560,1,1,2
0,2743,2990,-1,1,2
0,2744,1720,1,1,2
0,2745,3800,1,1,2
0,2746,2160,1,1,2
0,2747,2180,1,1,2
0,2748,1420,-1,1,2
0,2749,4070,1,1,2
0,2750,1260,1,1,2
0,2751,3500,1,1,2
0,2752,1560,1,1,2
0,2753,800,1,1,2
0,2754,330,-1,1,2
0,2755,2530,-1,1,2
0,2756,2310,1,1,2
0,2757,1580,1,1,2
0,2758,2090,-1,1,2
0,2759,3320,1,1,2
0,2760,3910,1,1,2
0,2761,800,1,1,2
0,2762,4730,-1,1,2
0,2763,2040,1,1,2
0,2764,910,1,1,2
0,2765,7040,1,1,2
0,2766,1620,1,1,2
0,2767,2090,1,1,2
0,2768,660,1,1,2
0,2769,1880,1,1,2
0,2770,2320,-1,1,2
0,2771,1030,-1,1,2
0,2772,3900,-1,1,2
0,2773,530,-1,1,2
0,2774,2350,1,1,2
0,2775,1180,1,1,2
0,2776,1470,1,1,2
0,2777,2330,1,1,2
0,2778,1100,-1,1,2
0,2779,4590,1,1,2
0,2780,2920,1,1,2
0,2781,2090,1,1,2
0,2782,4990,1,1,2
0,2783,1650,1,1,2
0,2784,390,-1,1,2
0,2785,2140,-1,1,2
0,2786,6120,1,1,2
0,2787,1620,-1,1,2
0,2788,1700,-1,1,2
0,2789,2410,-1,1,2
0,2790,2490,1,1,2
0,2791,2970,-1,1,2
0,2792,5670,-1,1,2
0,2793,1030,1,1,2
0,2794,720,-1,1,2
0,2795,3450,1,1,2
0,2796,1210,1,1,2
0,2797,4930,-1,1,2
0,2798,400,1,1,2
0,2799,1640,1,1,2
0,2800,4010,-1,1,2
0,2801,810,-1,1,2
0,2802,1050,1,1,2
0,2803,2510,-1,1,2
0,2804,1610,1,1,2
0,2805,2100,1,1,2
0,2806,1100,1,1,2
0,2807,3780,-1,1,2
0,2808,2930,1,1,2
0,2809,1340,1,1,2
0,2810,2010,-1,1,2
0,2811,1940,-1,1,2
0,2812,2940,-1,1,2
0,2813,2180,1,1,2
0,2814,520,1,1,2
0,2815,2790,-1,1,2
0,2816,4260,1,1,2
0,2817,19580,-1,1,2
0,2818,1990,1,1,2
0,2819,810,1,1,2
0,2820,1840,1,1,2
0,2821,11460,1,1,2
0,2822,960,-1,1,2
0,2823,1390,1,1,2
0,2824,3390,1,1,2
0,2825,6310,1,1,2
0,2826,2510,1,1,2
0,2827,3290,1,1,2
0,2828,1810,-1,1,2
0,2829,2900,-1,1,2
0,2830,4780,-1,1,2
0,2831,2660,1,1,2
0,2832,2690,1,1,2
0,2833,1340,1,1,2
0,2834,3610,1,1,2
0,2835,2530,1,1,2
0,2836,510,-1,1,2
0,2837,1540,-1,1,2
0,2838,7870,-1,1,2
0,2839,1660,-1,1,2
0,2840,1950,1,1,2
0,2841,5390,1,1,2
0,2842,9900,1,1,2
0,2843,900,-1,1,2
0,2844,7040,1,1,2
0,2845,4050,1,1,2
0,2846,2200,1,1,2
0,2847,2770,1,1,2
0,2848,420,-1,1,2
0,2849,1820,1,1,2
0,2850,2040,1,1,2
0,2851,1050,1,1,2
0,2852,2130,1,1,2
0,2853,2460,-1,1,2
0,2854,600,-1,1,2
0,2855,3000,1,1,2
0,2856,1930,1,1,2
0,2857,2130,1,1,2
0,2858,1680,1,1,2
0,2859,4410,1,1,2
0,2860,740,1,1,2
0,2861,480,-1,1,2
0,2862,3530,1,1,2
0,2863,3050,1,1,2
0,2864,2030,-1,1,2
0,2865,2090,1,1,2
0,2866,2080,1,1,2
0,2867,4240,1,1,2
0,2868,690,1,1,2
0,2869,4930,1,1,2
0,2870,3910,1,1,2
0,2871,1550,1,1,2
0,2872,3230,1,1,2
0,2873,1240,1,1,2
0,2874,3950,1,1,2
0,2875,11160,1,1,2
0,2876,2960,-1,1,2
0,2877,1660,1,1,2
0,2878,2680,-1,1,2
0,2879,700,1,1,2
0,2880,740,1,1,2
0,2881,2880,1,1,2
0,2882,3170,1,1,2
0,2883,2870,1,1,2
0,2884,5600,-1,1,2
0,2885,3880,-1,1,2
0,2886,1030,-1,1,2
0,2887,4500,1,1,2
0,2888,3940,1,1,2
0,2889,2440,1,1,2
0,2890,6210,-1,1,2
0,2891,7510,1,1,2
0,2892,2840,-1,1,2
0,2893,2390,1,1,2
0,2894,830,1,1,2
0,2895,390,-1,1,2
0,2896,2820,-1,1,2
0,2897,1700,1,1,2
0,2898,1580,-1,1,2
0,2899,1420,1,1,2
0,2900,1070,-1,1,2
0,2901,5490,1,1,2
0,2902,2290,1,1,2
0,2903,4990,1,1,2
0,2904,2240,1,1,2
0,2905,400,1,1,2
0,2906,2500,1,1,2
0,2907,1670,1,1,2
0,2908,4920,1,1,2
0,2909,3430,1,1,2
0,2910,5870,1,1,2
0,2911,1080,1,1,2
0,2912,1910,-1,1,2
0,2913,5600,1,1,2
0,2914,740,1,1,2
0,2915,940,1,1,2
0,2916,1960,1,1,2
0,2917,4150,1,1,2
0,2918,570,1,1,2
0,2919,1560,1,1,2
0,2920,1860,1,1,2
0,2921,1070,1,1,2
0,2922,3150,1,1,2
0,2923,2200,1,1,2
0,2924,1590,1,1,2
0,2925,3430,-1,1,2
0,2926,3610,1,1,2
0,2927,1110,1,1,2
0,2928,1350,-1,1,2
0,2929,2640,-1,1,2
0,2930,2510,-1,1,2
0,2931,810,1,1,2
0,2932,2860,1,1,2
0,2933,2730,1,1,2
0,2934,1670,1,1,2
0,2935,1580,-1,1,2
0,2936,2470,-1,1,2
0,2937,2410,1,1,2
0,2938,1250,-1,1,2
0,2939,1120,1,1,2
0,2940,6000,1,1,2
0,2941,4380,1,1,2
0,2942,580,-1,1,2
0,2943,7380,-1,1,2
0,2944,610,1,1,2
0,2945,7900,-1,1,2
0,2946,4440,1,1,2
0,2947,2750,-1,1,2
0,2948,4920,1,1,2
0,2949,2240,1,1,2
0,2950,3730,1,1,2
0,2951,5700,1,1,2
0,2952,770,-1,1,2
0,2953,1880,1,1,2
0,2954,3200,-1,1,2
0,2955,630,-1,1,2
0,2956,14670,1,1,2
0,2957,2020,1,1,2
0,2958,3910,1,1,2
0,2959,2660,1,1,2
0,2960,880,-1,1,2
0,2961,1020,1,1,2
0,2962,2810,-1,1,2
0,2963,760,-1,1,2
0,2964,1080,-1,1,2
0,2965,2860,-1,1,2
0,2966,300,-1,1,2
0,2967,2160,1,1,2
0,2968,1610,1,1,2
0,2969,1090,-1,1,2
0,2970,2830,1,1,2
0,2971,1950,-1,1,2
0,2972,3740,1,1,2
0,2973,1190,-1,1,2
0,2974,760,-1,1,2
0,2975,1640,1,1,2
0,2976,900,-1,1,2
0,2977,4240,1,1,2
0,2978,930,1,1,2
0,2979,2280,1,1,2
0,2980,1460,1,1,2
0,2981,790,-1,1,2
0,2982,1150,-1,1,2
0,2983,2640,1,1,2
0,2984,8000,1,1,2
0,2985,1980,1,1,2
0,2986,1900,1,1,2
0,2987,4330,1,1,2
0,2988,10830,1,1,2
0,2989,830,1,1,2
0,2990,440,-1,1,2
0,2991,2010,1,1,2
0,2992,5830,1,1,2
0,2993,1230,1,1,2
0,2994,5010,1,1,2
0,2995,2640,1,1,2
0,2996,4590,1,1,2
0,2997,2360,1,1,2
0,2998,610,1,1,2
0,2999,8880,1,1,2
0,3000,7730,1,1,2
0,3001,1780,1,1,2
0,3002,2700,1,1,2
0,3003,1180,1,1,2
0,3004,2850,1,1,2
0,3005,570,-1,1,2
0,3006,6930,-1,1,2
0,3007,1120,-1,1,2
0,3008,1500,1,1,2
0,3009,2100,1,1,2
0,3010,2660,-1,1,2
0,3011,4610,-1,1,2
0,3012,6480,1,1,2
0,3013,3130,1,1,2
0,3014,2970,-1,1,2
0,3015,2750,1,1,2
0,3016,6800,-1,1,2
0,3017,2300,1,1,2
0,3018,2810,1,1,2
0,3019,2890,1,1,2
0,3020,2200,1,1,2
0,3021,590,1,1,2
0,3022,3320,-1,1,2
0,3023,3720,1,1,2
0,3024,5020,-1,1,2
0,3025,4290,1,1,2
0,3026,3010,1,1,2
0,3027,1180,1,1,2
0,3028,1670,1,1,2
0,3029,5860,-1,1,2
0,3030,1450,1,1,2
0,3031,4760,-1,1,2
0,3032,3220,-1,1,2
0,3033,780,-1,1,2
0,3034,2320,-1,1,2
0,3035,1590,1,1,2
0,3036,2680,1,1,2
0,3037,8590,1,1,2
0,3038,6210,1,1,2
0,3039,1490,1,1,2
0,3040,2980,1,1,2
0,3041,3880,1,1,2
0,3042,1380,1,1,2
0,3043,2240,1,1,2
0,3044,1250,1,1,2
0,3045,2480,1,1,2
0,3046,5190,1,1,2
0,3047,1370,1,1,2
0,3048,2310,1,1,2
0,3049,6910,-1,1,2
0,3050,660,-1,1,2
0,3051,2650,1,1,2
0,3052,860,1,1,2
0,3053,1430,1,1,2
0,3054,2590,1,1,2
0,3055,2690,-1,1,2
0,3056,380,1,1,2
0,3057,8260,1,1,2
0,3058,3380,1,1,2
0,3059,3040,1,1,2
0,3060,3390,-1,1,2
0,3061,3990,1,1,2
0,3062,2380,1,1,2
0,3063,1070,-1,1,2
0,3064,4660,1,1,2
0,3065,1740,1,1,2
0,3066,6940,1,1,2
0,3067,490,1,1,2
0,3068,1250,1,1,2
0,3069,1720,1,1,2
0,3070,2220,1,1,2
0,3071,2670,-1,1,2
0,3072,3330,-1,1,2
0,3073,1870,1,1,2
0,3074,3910,1,1,2
0,3075,2170,1,1,2
0,3076,4730,1,1,2
0,3077,2410,-1,1,2
0,3078,2340,-1,1,2
0,3079,720,-1,1,2
0,3080,840,-1,1,2
0,3081,7330,-1,1,2
0,3082,4010,-1,1,2
0,3083,2660,-1,1,2
0,3084,1200,1,1,2
0,3085,1520,1,1,2
0,3086,3320,1,1,2
0,3087,680,-1,1,2
0,3088,3720,-1,1,2
0,3089,1770,1,1,2
0,3090,1540,1,1,2
0,3091,860,-1,1,2
0,3092,640,1,1,2
0,3093,2860,-1,1,2
0,3094,5220,1,1,2
0,3095,5190,1,1,2
0,3096,3030,-1,1,2
0,3097,520,-1,1,2
0,3098,450,1,1,2
0,3099,2370,1,1,2
0,3100,590,-1,1,2
0,3101,1510,1,1,2
0,3102,750,1,1,2
0,3103,4570,1,1,2
0,3104,3450,1,1,2
0,3105,560,1,1,2
0,3106,1770,1,1,2
0,3107,2430,1,1,2
0,3108,3950,1,1,2
0,3109,1870,1,1,2
0,3110,2470,-1,1,2
0,3111,8050,1,1,2
0,3112,570,-1,1,2
0,3113,1470,1,1,2
0,3114,1510,1,1,2
0,3115,5440,-1,1,2
0,3116,880,1,1,2
0,3117,2270,-1,1,2
0,3118,2240,-1,1,2
0,3119,2420,1,1,2
0,3120,1150,-1,1,2
0,3121,2100,-1,1,2
0,3122,2380,1,1,2
0,3123,910,1,1,2
0,3124,3620,1,1,2
0,3125,5360,-1,1,2
0,3126,2330,-1,1,2
0,3127,3020,-1,1,2
0,3128,950,-1,1,2
0,3129,4460,1,1,2
0,3130,400,1,1,2
0,3131,1080,-1,1,2
0,3132,5600,1,1,2
0,3133,5570,-1,1,2
0,3134,2850,-1,1,2
0,3135,2470,-1,1,2
0,3136,2170,-1,1,2
0,3137,7640,-1,1,2
0,3138,6220,1,1,2
0,3139,600,-1,1,2
0,3140,3000,1,1,2
0,3141,830,1,1,2
0,3142,940,1,1,2
0,3143,1250,1,1,2
0,3144,1580,1,1,2
0,3145,1140,-1,1,2
0,3146,2410,1,1,2
0,3147,930,-1,1,2
0,3148,1950,1,1,2
0,3149,4140,-1,1,2
0,3150,530,1,1,2
0,3151,2340,1,1,2
0,3152,2080,-1,1,2
0,3153,2210,1,1,2
0,3154,5630,1,1,2
0,3155,2600,1,1,2
0,3156,1380,-1,1,2
0,3157,3710,1,1,2
0,3158,3250,1,1,2
0,3159,2260,1,1,2
0,3160,5210,1,1,2
0,3161,1460,-1,1,2
0,3162,8560,1,1,2
0,3163,620,-1,1,2
0,3164,7130,1,1,2
0,3165,740,1,1,2
0,3166,540,-1,1,2
0,3167,2580,1,1,2
0,3168,3390,1,1,2
0,3169,3760,1,1,2
0,3170,2060,1,1,2
0,3171,380,-1,1,2
0,3172,1020,1,1,2
0,3173,3850,1,1,2
0,3174,6740,-1,1,2
0,3175,9340,1,1,2
0,3176,2210,1,1,2
0,3177,350,1,1,2
0,3178,1270,1,1,2
0,3179,2720,1,1,2
0,3180,3930,1,1,2
0,3181,4130,1,1,2
0,3182,4350,-1,1,2
0,3183,1750,1,1,2
0,3184,4440,1,1,2
0,3185,900,-1,1,2
0,3186,2040,-1,1,2
0,3187,850,-1,1,2
0,3188,7750,1,1,2
0,3189,1150,1,1,2
0,3190,4360,-1,1,2
0,3191,5680,1,1,2
0,3192,1110,-1,1,2
0,3193,7410,-1,1,2
0,3194,2890,-1,1,2
0,3195,2560,-1,1,2
0,3196,2060,1,1,2
0,3197,6920,1,1,2
0,3198,5090,-1,1,2
0,3199,4980,-1,1,2
0,3200,1360,1,1,2
0,3201,560,1,1,2
0,3202,720,1,1,2
0,3203,1080,1,1,2
0,3204,2390,-1,1,2
0,3205,2690,1,1,2
0,3206,2100,-1,1,2
0,3207,3160,1,1,2
0,3208,3180,1,1,2
0,3209,1170,1,1,2
0,3210,1460,1,1,2
0,3211,2380,1,1,2
0,3212,3280,1,1,2
0,3213,4410,1,1,2
0,3214,1550,-1,1,2
0,3215,2350,1,1,2
0,3216,2720,1,1,2
0,3217,400,1,1,2
0,3218,2090,1,1,2
0,3219,5530,1,1,2
0,3220,820,1,1,2
0,3221,5740,1,1,2
0,3222,9260,1,1,2
0,3223,5210,1,1,2
0,3224,3840,1,1,2
0,3225,1600,-1,1,2
0,3226,1910,-1,1,2
0,3227,2750,-1,1,2
0,3228,3670,-1,1,2
0,3229,3250,1,1,2
0,3230,1030,-1,1,2
0,3231,940,-1,1,2
0,3232,340,1,1,2
0,3233,2060,-1,1,2
0,3234,1610,1,1,2
0,3235,580,-1,1,2
0,3236,1760,1,1,2
0,3237,11110,-1,1,2
0,3238,1090,1,1,2
0,3239,4420,1,1,2
0,3240,600,-1,1,2
0,3241,3490,1,1,2
0,3242,820,1,1,2
0,3243,2810,-1,1,2
0,3244,1260,1,1,2
0,3245,1410,1,1,2
0,3246,1630,1,1,2
0,3247,1530,1,1,2
0,3248,1270,1,1,2
0,3249,1820,1,1,2
0,3250,1730,1,1,2
0,3251,5980,-1,1,2
0,3252,1750,1,1,2
0,3253,3960,1,1,2
0,3254,2060,1,1,2
0,3255,950,-1,1,2
0,3256,4070,1,1,2
0,3257,4020,1,1,2
0,3258,2000,1,1,2
0,3259,2490,-1,1,2
0,3260,1940,-1,1,2
0,3261,470,1,1,2
0,3262,450,1,1,2
0,3263,4840,1,1,2
0,3264,2840,1,1,2
0,3265,1410,1,1,2
0,3266,8430,1,1,2
0,3267,3990,-1,1,2
0,3268,6130,-1,1,2
0,3269,2290,1,1,2
0,3270,2330,1,1,2
0,3271,720,1,1,2
0,3272,1180,1,1,2
0,3273,9080,-1,1,2
0,3274,1420,1,1,2
0,3275,7960,1,1,2
0,3276,910,1,1,2
0,3277,1730,1,1,2
0,3278,2930,-1,1,2
0,3279,2540,-1,1,2
0,3280,1030,-1,1,2
0,3281,3130,-1,1,2
0,3282,2470,-1,1,2
0,3283,11410,1,1,2
0,3284,1210,1,1,2
0,3285,1040,1,1,2
0,3286,600,-1,1,2
0,3287,3170,1,1,2
0,3288,4520,-1,1,2
0,3289,3430,-1,1,2
0,3290,890,-1,1,2
0,3291,1430,-1,1,2
0,3292,2900,-1,1,2
0,3293,3450,-1,1,2
0,3294,2400,-1,1,2
0,3295,1300,1,1,2
0,3296,2980,-1,1,2
0,3297,4040,-1,1,2
0,3298,2290,1,1,2
0,3299,5530,1,1,2
0,3300,2420,-1,1,3
0,3301,1350,-1,1,3
0,3302,3580,1,1,3
0,3303,1990,1,1,3
0,3304,2140,1,1,3
0,3305,2050,1,1,3
0,3306,1780,1,1,3
0,3307,5010,1,1,3
0,3308,1180,1,1,3
0,3309,2460,1,1,3
0,3310,2260,-1,1,3
0,3311,1740,1,1,3
0,3312,3610,1,1,3
0,3313,1680,1,1,3
0,3314,1880,1,1,3
0,3315,1300,1,1,3
0,3316,1600,1,1,3
0,3317,2800,1,1,3
0,3318,3230,1,1,3
0,3319,2900,1,1,3
0,3320,810,1,1,3
0,3321,3090,-1,1,3
0,3322,730,1,1,3
0,3323,2150,1,1,3
0,3324,720,-1,1,3
0,3325,9460,1,1,3
0,3326,1090,1,1,3
0,3327,1950,1,1,3
0,3328,5140,1,1,3
0,3329,470,-1,1,3
0,3330,6520,1,1,3
0,3331,2330,1,1,3
0,3332,2610,1,1,3
0,3333,1190,1,1,3
0,3334,3070,1,1,3
0,3335,3680,1,1,3
0,3336,3710,1,1,3
0,3337,2200,-1,1,3
0,3338,5850,1,1,3
0,3339,3050,1,1,3
0,3340,1120,1,1,3
0,3341,6880,1,1,3
0,3342,2610,1,1,3
0,3343,1650,1,1,3
0,3344,850,1,1,3
0,3345,1240,1,1,3
0,3346,860,1,1,3
0,3347,530,1,1,3
0,3348,5190,-1,1,3
0,3349,1990,1,1,3
0,3350,860,1,1,3
0,3351,730,1,1,3
0,3352,1800,-1,1,3
0,3353,1960,1,1,3
0,3354,2120,1,1,3
0,3355,2030,1,1,3
0,3356,6150,1,1,3
0,3357,1250,1,1,3
0,3358,2530,1,1,3
0,3359,4370,1,1,3
0,3360,4380,1,1,3
0,3361,2120,1,1,3
0,3362,1600,1,1,3
0,3363,2010,1,1,3
0,3364,900,-1,1,3
0,3365,1270,-1,1,3
0,3366,670,1,1,3
0,3367,2530,1,1,3
0,3368,1810,1,1,3
0,3369,1510,1,1,3
0,3370,1900,1,1,3
0,3371,1230,1,1,3
0,3372,1820,1,1,3
0,3373,240,1,1,3
0,3374,1780,1,1,3
0,3375,980,1,1,3
0,3376,2140,1,1,3
0,3377,2380,-1,1,3
0,3378,1650,1,1,3
0,3379,3810,1,1,3
0,3380,3230,1,1,3
0,3381,1050,-1,1,3
0,3382,2570,1,1,3
0,3383,3540,1,1,3
0,3384,3470,1,1,3
0,3385,1180,1,1,3
0,3386,3430,-1,1,3
0,3387,2050,-1,1,3
0,3388,1840,1,1,3
0,3389,1240,1,1,3
0,3390,620,1,1,3
0,3391,1150,1,1,3
0,3392,1340,1,1,3
0,3393,680,1,1,3
0,3394,6490,1,1,3
0,3395,2310,1,1,3
0,3396,3870,1,1,3
0,3397,1030,1,1,3
0,3398,6010,1,1,3
0,3399,510,1,1,3
0,3400,4110,1,1,3
0,3401,1490,1,1,3
0,3402,880,1,1,3
0,3403,2210,1,1,3
0,3404,970,1,1,3
0,3405,6640,1,1,3
0,3406,1020,1,1,3
0,3407,790,1,1,3
0,3408,1150,1,1,3
0,3409,3860,-1,1,3
0,3410,1380,-1,1,3
0,3411,1910,1,1,3
0,3412,1570,1,1,3
0,3413,1660,1,1,3
0,3414,2950,-1,1,3
0,3415,3100,-1,1,3
0,3416,2020,1,1,3
0,3417,650,-1,1,3
0,3418,3910,-1,1,3
0,3419,1020,1,1,3
0,3420,4070,1,1,3
0,3421,1290,1,1,3
0,3422,6700,1,1,3
0,3423,5870,-1,1,3
0,3424,1550,1,1,3
0,3425,1920,1,1,3
0,3426,5130,1,1,3
0,3427,2120,1,1,3
0,3428,1280,1,1,3
0,3429,380,1,1,3
0,3430,750,1,1,3
0,3431,1840,1,1,3
0,3432,1330,1,1,3
0,3433,2010,1,1,3
0,3434,1410,1,1,3
0,3435,2120,1,1,3
0,3436,2860,1,1,3
0,3437,4490,1,1,3
0,3438,1100,1,1,3
0,3439,5470,1,1,3
0,3440,550,1,1,3
0,3441,1520,1,1,3
0,3442,2980,1,1,3
0,3443,7490,1,1,3
0,3444,1020,1,1,3
0,3445,1330,1,1,3
0,3446,5840,1,1,3
0,3447,1130,-1,1,3
0,3448,1360,1,1,3
0,3449,5580,1,1,3
0,3450,2560,1,1,3
0,3451,2630,1,1,3
0,3452,490,1,1,3
0,3453,2030,1,1,3
0,3454,1060,1,1,3
0,3455,1860,1,1,3
0,3456,3140,1,1,3
0,3457,670,1,1,3
0,3458,3330,1,1,3
0,3459,2700,1,1,3
0,3460,2100,1,1,3
0,3461,1710,1,1,3
0,3462,2540,1,1,3
0,3463,1340,1,1,3
0,3464,2740,1,1,3
0,3465,410,-1,1,3
0,3466,1390,1,1,3
0,3467,1080,-1,1,3
0,3468,2260,-1,1,3
0,3469,570,1,1,3
0,3470,1680,-1,1,3
0,3471,1550,1,1,3
0,3472,1430,-1,1,3
0,3473,810,1,1,3
0,3474,1460,1,1,3
0,3475,4890,1,1,3
0,3476,2600,1,1,3
0,3477,1860,1,1,3
0,3478,3080,1,1,3
0,3479,1100,1,1,3
0,3480,4860,1,1,3
0,3481,2050,1,1,3
0,3482,3550,1,1,3
0,3483,1240,1,1,3
0,3484,5170,1,1,3
0,3485,2560,1,1,3
0,3486,1480,1,1,3
0,3487,4120,1,1,3
0,3488,4750,1,1,3
0,3489,3480,1,1,3
0,3490,1750,1,1,3
0,3491,1430,1,1,3
0,3492,3410,1,1,3
0,3493,3880,1,1,3
0,3494,620,1,1,3
0,3495,4310,1,1,3
0,3496,1740,-1,1,3
0,3497,1430,1,1,3
0,3498,6150,-1,1,3
0,3499,1770,1,1,3
0,3500,7770,-1,1,3
0,3501,1020,1,1,3
0,3502,1690,1,1,3
0,3503,2150,-1,1,3
0,3504,1080,1,1,3
0,3505,1300,1,1,3
0,3506,7000,1,1,3
0,3507,440,-1,1,3
0,3508,1500,1,1,3
0,3509,2800,1,1,3
0,3510,2780,1,1,3
0,3511,1540,1,1,3
0,3512,1980,1,1,3
0,3513,1670,1,1,3
0,3514,790,-1,1,3
0,3515,1320,-1,1,3
0,3516,1620,1,1,3
0,3517,1130,1,1,3
0,3518,2520,1,1,3
0,3519,1010,1,1,3
0,3520,1120,1,1,3
0,3521,1240,1,1,3
0,3522,610,1,1,3
0,3523,2610,1,1,3
0,3524,1210,1,1,3
0,3525,1480,1,1,3
0,3526,2850,1,1,3
0,3527,2520,1,1,3
0,3528,580,1,1,3
0,3529,1050,-1,1,3
0,3530,830,1,1,3
0,3531,2310,1,1,3
0,3532,2310,1,1,3
0,3533,1490,1,1,3
0,3534,480,-1,1,3
0,3535,1950,1,1,3
0,3536,5150,1,1,3
0,3537,1320,-1,1,3
0,3538,3900,1,1,3
0,3539,1850,1,1,3
0,3540,570,1,1,3
0,3541,5110,1,1,3
0,3542,11610,1,1,3
0,3543,790,1,1,3
0,3544,950,1,1,3
0,3545,3880,1,1,3
0,3546,510,1,1,3
0,3547,600,1,1,3
0,3548,950,1,1,3
0,3549,3290,1,1,3
0,3550,1530,1,1,3
0,3551,1100,1,1,3
0,3552,4430,1,1,3
0,3553,3020,1,1,3
0,3554,1640,1,1,3
0,3555,2540,1,1,3
0,3556,1140,1,1,3
0,3557,1290,1,1,3
0,3558,1680,1,1,3
0,3559,980,-1,1,3
0,3560,440,1,1,3
0,3561,420,-1,1,3
0,3562,1380,1,1,3
0,3563,1060,1,1,3
0,3564,1410,1,1,3
0,3565,2930,1,1,3
0,3566,1820,1,1,3
0,3567,2320,1,1,3
0,3568,1540,1,1,3
0,3569,2430,1,1,3
0,3570,7860,1,1,3
0,3571,1390,1,1,3
0,3572,2590,1,1,3
0,3573,670,1,1,3
0,3574,770,1,1,3
0,3575,2700,1,1,3
0,3576,540,-1,1,3
0,3577,3200,1,1,3
0,3578,2640,1,1,3
0,3579,580,-1,1,3
0,3580,2970,1,1,3
0,3581,410,1,1,3
0,3582,2440,1,1,3
0,3583,1650,1,1,3
0,3584,1200,1,1,3
0,3585,3180,1,1,3
0,3586,2550,-1,1,3
0,3587,680,-1,1,3
0,3588,2790,1,1,3
0,3589,4580,-1,1,3
0,3590,1120,1,1,3
0,3591,1710,1,1,3
0,3592,840,1,1,3
0,3593,2800,1,1,3
0,3594,2330,1,1,3
0,3595,1840,1,1,3
0,3596,2860,1,1,3
0,3597,3670,1,1,3
0,3598,2680,1,1,3
0,3599,560,1,1,3
0,3600,620,-1,2,0
0,3601,2840,-1,2,0
0,3602,660,-1,2,0
0,3603,3660,-1,2,0
0,3604,2400,-1,2,0
0,3605,2740,-1,2,0
0,3606,550,1,2,0
0,3607,4650,-1,2,0
0,3608,1930,1,2,0
0,3609,3290,-1,2,0
0,3610,3550,-1,2,0
0,3611,3170,-1,2,0
0,3612,1490,-1,2,0
0,3613,1390,-1,2,0
0,3614,1170,1,2,0
0,3615,3090,-1,2,0
0,3616,1400,-1,2,0
0,3617,6140,-1,2,0
0,3618,1280,1,2,0
0,3619,4890,1,2,0
0,3620,1000,-1,2,0
0,3621,1600,-1,2,0
0,3622,330,-1,2,0
0,3623,450,1,2,0
0,3624,960,-1,2,0
0,3625,8660,-1,2,0
0,3626,2010,-1,2,0
0,3627,2830,-1,2,0
0,3628,950,-1,2,0
0,3629,5530,-1,2,0
0,3630,2990,-1,2,0
0,3631,1210,-1,2,0
0,3632,5120,-1,2,0
0,3633,2740,-1,2,0
0,3634,580,-1,2,0
0,3635,2580,-1,2,0
0,3636,7070,-1,2,0
0,3637,920,-1,2,0
0,3638,1510,1,2,0
0,3639,1250,-1,2,0
0,3640,5280,-1,2,0
0,3641,750,-1,2,0
0,3642,1020,1,2,0
0,3643,2570,-1,2,0
0,3644,790,-1,2,0
0,3645,2660,-1,2,0
0,3646,3030,-1,2,0
0,3647,2400,-1,2,0
0,3648,660,-1,2,0
0,3649,1940,-1,2,0
0,3650,8360,-1,2,0
0,3651,1300,-1,2,0
0,3652,2750,-1,2,0
0,3653,410,-1,2,0
0,3654,2110,-1,2,0
0,3655,1590,-1,2,0
0,3656,1100,-1,2,0
0,3657,3740,-1,2,0
0,3658,1290,-1,2,0
0,3659,2240,1,2,0
0,3660,1520,-1,2,0
0,3661,500,-1,2,0
0,3662,1420,-1,2,0
0,3663,820,-1,2,0
0,3664,1890,1,2,0
0,3665,490,-1,2,0
0,3666,470,-1,2,0
0,3667,1670,-1,2,0
0,3668,3580,-1,2,0
0,3669,680,-1,2,0
0,3670,820,-1,2,0
0,3671,2530,1,2,0
0,3672,1330,-1,2,0
0,3673,1100,-1,2,0
0,3674,2830,-1,2,0
0,3675,450,-1,2,0
0,3676,1240,-1,2,0
0,3677,920,-1,2,0
0,3678,510,-1,2,0
0,3679,930,-1,2,0
0,3680,1470,-1,2,0
0,3681,1160,-1,2,0
0,3682,1800,-1,2,0
0,3683,2520,-1,2,0
0,3684,760,-1,2,0
0,3685,1110,-1,2,0
0,3686,2100,1,2,0
0,3687,1300,-1,2,0
0,3688,1950,-1,2,0
0,3689,6140,-1,2,0
0,3690,2200,-1,2,0
0,3691,1360,-1,2,0
0,3692,2600,1,2,0
0,3693,5970,-1,2,0
0,3694,2260,-1,2,0
0,3695,1740,-1,2,0
0,3696,2280,-1,2,0
0,3697,1680,-1,2,0
0,3698,2290,-1,2,0
0,3699,4290,-1,2,0
0,3700,3460,1,2,0
0,3701,1140,-1,2,0
0,3702,1070,-1,2,0
0,3703,4650,-1,2,0
0,3704,670,-1,2,0
0,3705,2030,1,2,0
0,3706,850,1,2,0
0,3707,1780,-1,2,0
0,3708,860,-1,2,0
0,3709,1500,-1,2,0
0,3710,2750,-1,2,0
0,3711,1180,-1,2,0
0,3712,2250,1,2,0
0,3713,1550,1,2,0
0,3714,1070,-1,2,0
0,3715,6620,-1,2,0
0,3716,5480,-1,2,0
0,3717,640,1,2,0
0,3718,1660,-1,2,0
0,3719,1460,-1,2,0
0,3720,1900,-1,2,0
0,3721,2940,-1,2,0
0,3722,1210,-1,2,0
0,3723,2670,-1,2,0
0,3724,440,-1,2,0
0,3725,2220,-1,2,0
0,3726,4550,1,2,0
0,3727,2170,1,2,0
0,3728,1700,-1,2,0
0,3729,1380,-1,2,0
0,3730,2300,-1,2,0
0,3731,4300,-1,2,0
0,3732,6040,-1,2,0
0,3733,1510,-1,2,0
0,3734,1590,-1,2,0
0,3735,2940,1,2,0
0,3736,3720,1,2,0
0,3737,6370,-1,2,0
0,3738,1800,-1,2,0
0,3739,2640,-1,2,0
0,3740,4130,-1,2,0
0,3741,510,-1,2,0
0,3742,2300,-1,2,0
0,3743,780,-1,2,0
0,3744,1350,1,2,0
0,3745,950,-1,2,0
0,3746,3660,1,2,0
0,3747,1000,-1,2,0
0,3748,1040,-1,2,0
0,3749,2250,-1,2,0
0,3750,1620,1,2,0
0,3751,1220,-1,2,0
0,3752,3640,-1,2,0
0,3753,680,-1,2,0
0,3754,3590,-1,2,0
0,3755,2880,-1,2,0
0,3756,1610,-1,2,0
0,3757,1180,-1,2,0
0,3758,610,-1,2,0
0,3759,2510,-1,2,0
0,3760,980,-1,2,0
0,3761,1920,-1,2,0
0,3762,2350,-1,2,0
0,3763,5000,-1,2,0
0,3764,2940,-1,2,0
0,3765,530,-1,2,0
0,3766,1370,-1,2,0
0,3767,910,-1,2,0
0,3768,4030,-1,2,0
0,3769,1790,-1,2,0
0,3770,1050,1,2,0
0,3771,960,1,2,0
0,3772,1900,-1,2,0
0,3773,2090,-1,2,0
0,3774,410,-1,2,0
0,3775,740,-1,2,0
0,3776,1620,-1,2,0
0,3777,2980,-1,2,0
0,3778,740,-1,2,0
0,3779,1750,1,2,0
0,3780,1310,-1,2,0
0,3781,9460,-1,2,0
0,3782,740,-1,2,0
0,3783,4750,-1,2,0
0,3784,1150,-1,2,0
0,3785,3170,-1,2,0
0,3786,590,-1,2,0
0,3787,2990,-1,2,0
0,3788,10100,-1,2,0
0,3789,1540,-1,2,0
0,3790,640,-1,2,0
0,3791,5890,-1,2,0
0,3792,2020,-1,2,0
0,3793,5140,-1,2,0
0,3794,1690,-1,2,0
0,3795,970,-1,2,0
0,3796,750,-1,2,0
0,3797,2850,-1,2,0
0,3798,1170,-1,2,0
0,3799,2690,-1,2,0
0,3800,1060,-1,2,0
0,3801,2150,-1,2,0
0,3802,3520,-1,2,0
0,3803,1220,1,2,0
0,3804,1120,-1,2,0
0,3805,2080,-1,2,0
0,3806,690,-1,2,0
0,3807,6560,-1,2,0
0,3808,2400,-1,2,0
0,3809,8670,-1,2,0
0,3810,2130,-1,2,0
0,3811,830,-1,2,0
0,3812,2410,1,2,0
0,3813,1770,-1,2,0
0,3814,4250,-1,2,0
0,3815,5220,-1,2,0
0,3816,940,-1,2,0
0,3817,6880,1,2,0
0,3818,1510,-1,2,0
0,3819,520,-1,2,0
0,3820,860,-1,2,0
0,3821,730,-1,2,0
0,3822,4490,-1,2,0
0,3823,7100,-1,2,0
0,3824,3640,-1,2,0
0,3825,1730,-1,2,0
0,3826,1220,-1,2,0
0,3827,3520,-1,2,0
0,3828,8240,1,2,0
0,3829,5200,-1,2,0
0,3830,10930,-1,2,0
0,3831,2840,-1,2,0
0,3832,1030,-1,2,0
0,3833,3330,1,2,0
0,3834,2190,-1,2,0
0,3835,5070,-1,2,0
0,3836,520,-1,2,0
0,3837,3400,1,2,0
0,3838,1490,1,2,0
0,3839,2410,1,2,0
0,3840,1940,-1,2,0
0,3841,1820,-1,2,0
0,3842,1290,-1,2,0
0,3843,1900,-1,2,0
0,3844,1500,-1,2,0
0,3845,1340,1,2,0
0,3846,440,-1,2,0
0,3847,690,-1,2,0
0,3848,3080,1,2,0
0,3849,560,-1,2,0
0,3850,4730,-1,2,0
0,3851,3830,1,2,0
0,3852,2390,-1,2,0
0,3853,2240,-1,2,0
0,3854,930,1,2,0
0,3855,620,-1,2,0
0,3856,3520,-1,2,0
0,3857,3050,-1,2,0
0,3858,1780,1,2,0
0,3859,690,-1,2,0
0,3860,680,-1,2,0
0,3861,3600,1,2,0
0,3862,1000,-1,2,0
0,3863,1690,1,2,0
0,3864,640,1,2,0
0,3865,1820,-1,2,0
0,3866,790,-1,2,0
0,3867,760,-1,2,0
0,3868,1650,-1,2,0
0,3869,2060,-1,2,0
0,3870,2750,-1,2,0
0,3871,800,-1,2,0
0,3872,440,-1,2,0
0,3873,810,-1,2,0
0,3874,710,-1,2,0
0,3875,3160,-1,2,0
0,3876,2900,-1,2,0
0,3877,6360,-1,2,0
0,3878,680,-1,2,0
0,3879,1150,-1,2,0
0,3880,760,-1,2,0
0,3881,1090,-1,2,0
0,3882,3400,-1,2,0
0,3883,2330,-1,2,0
0,3884,960,-1,2,0
0,3885,1600,-1,2,0
0,3886,1880,1,2,0
0,3887,1200,-1,2,0
0,3888,3770,-1,2,0
0,3889,2960,1,2,0
0,3890,2670,-1,2,0
0,3891,1320,1,2,0
0,3892,1620,-1,2,0
0,3893,1750,-1,2,0
0,3894,6070,-1,2,0
0,3895,2240,-1,2,0
0,3896,3950,-1,2,0
0,3897,1920,-1,2,0
0,3898,2400,-1,2,0
0,3899,4000,-1,2,0
0,3900,1540,-1,2,0
0,3901,540,1,2,0
0,3902,2170,-1,2,0
0,3903,3650,1,2,0
0,3904,3340,-1,2,0
0,3905,410,1,2,0
0,3906,440,1,2,0
0,3907,1730,-1,2,0
0,3908,1120,-1,2,0
0,3909,330,1,2,0
0,3910,330,-1,2,0
0,3911,1660,-1,2,0
0,3912,2720,-1,2,0
0,3913,650,-1,2,0
0,3914,2960,-1,2,0
0,3915,1790,-1,2,0
0,3916,2610,-1,2,0
0,3917,300,-1,2,0
0,3918,2640,-1,2,0
0,3919,2580,-1,2,0
0,3920,530,-1,2,0
0,3921,250,-1,2,0
0,3922,2950,-1,2,0
0,3923,2100,-1,2,0
0,3924,2510,-1,2,0
0,3925,1260,-1,2,0
0,3926,1130,-1,2,0
0,3927,4710,-1,2,0
0,3928,7030,-1,2,0
0,3929,3040,-1,2,0
0,3930,1500,-1,2,0
0,3931,2520,-1,2,0
0,3932,590,-1,2,0
0,3933,2520,-1,2,0
0,3934,6690,-1,2,0
0,3935,780,-1,2,0
0,3936,910,-1,2,0
0,3937,5910,-1,2,0
0,3938,1510,-1,2,0
0,3939,5500,-1,2,0
0,3940,460,-1,2,0
0,3941,840,-1,2,0
0,3942,1170,-1,2,0
0,3943,1620,1,2,0
0,3944,5910,-1,2,0
0,3945,2510,1,2,0
0,3946,750,-1,2,0
0,3947,900,-1,2,0
0,3948,1250,-1,2,0
0,3949,790,-1,2,0
0,3950,3920,-1,2,0
0,3951,500,-1,2,0
0,3952,5470,-1,2,0
0,3953,1180,-1,2,0
0,3954,5820,-1,2,0
0,3955,1720,-1,2,0
0,3956,3850,-1,2,0
0,3957,980,1,2,0
0,3958,670,-1,2,0
0,3959,2040,-1,2,0
0,3960,1610,-1,2,0
0,3961,2730,-1,2,0
0,3962,3960,-1,2,0
0,3963,1400,-1,2,0
0,3964,2230,-1,2,0
0,3965,1270,-1,2,0
0,3966,830,-1,2,0
0,3967,3190,-1,2,0
0,3968,8820,-1,2,0
0,3969,4270,1,2,0
0,3970,2700,-1,2,0
0,3971,1580,-1,2,0
0,3972,5360,1,2,0
0,3973,690,-1,2,0
0,3974,1030,-1,2,0
0,3975,7490,-1,2,0
0,3976,4110,1,2,0
0,3977,2460,-1,2,0
0,3978,2580,-1,2,0
0,3979,1130,-1,2,0
0,3980,640,-1,2,0
0,3981,690,-1,2,0
0,3982,1160,-1,2,0
0,3983,2310,-1,2,0
0,3984,790,-1,2,0
0,3985,1100,1,2,0
0,3986,1750,1,2,0
0,3987,9290,-1,2,0
0,3988,800,-1,2,0
0,3989,1070,-1,2,0
0,3990,2790,-1,2,0
0,3991,720,-1,2,0
0,3992,860,-1,2,0
0,3993,850,-1,2,0
0,3994,5840,1,2,0
0,3995,3330,-1,2,0
0,3996,1680,-1,2,0
0,3997,3100,-1,2,0
0,3998,3320,-1,2,0
0,3999,2720,1,2,0
0,4000,4610,-1,2,0
0,4001,4360,-1,2,0
0,4002,1250,-1,2,0
0,4003,630,-1,2,0
0,4004,1110,-1,2,0
0,4005,3830,-1,2,0
0,4006,3330,-1,2,0
0,4007,3640,-1,2,0
0,4008,3430,-1,2,0
0,4009,1630,-1,2,0
0,4010,4020,-1,2,0
0,4011,3240,-1,2,0
0,4012,4380,-1,2,0
0,4013,750,-1,2,0
0,4014,810,-1,2,0
0,4015,4480,-1,2,0
0,4016,2550,-1,2,0
0,4017,3350,1,2,0
0,4018,700,-1,2,0
0,4019,1310,-1,2,0
0,4020,680,-1,2,0
0,4021,1520,-1,2,0
0,4022,3380,-1,2,0
0,4023,950,-1,2,0
0,4024,820,-1,2,0
0,4025,1510,-1,2,0
0,4026,500,-1,2,0
0,4027,2730,1,2,0
0,4028,3380,-1,2,0
0,4029,4940,-1,2,0
0,4030,1170,1,2,0
0,4031,1740,-1,2,0
0,4032,750,-1,2,0
0,4033,2080,-1,2,0
0,4034,920,-1,2,0
0,4035,1460,-1,2,0
0,4036,730,-1,2,0
0,4037,2260,-1,2,0
0,4038,2360,-1,2,0
0,4039,2850,-1,2,0
0,4040,8290,-1,2,0
0,4041,1060,-1,2,0
0,4042,860,-1,2,0
0,4043,2620,-1,2,0
0,4044,530,-1,2,0
0,4045,4030,-1,2,0
0,4046,1280,1,2,0
0,4047,980,1,2,0
0,4048,7450,-1,2,0
0,4049,1780,-1,2,0
0,4050,840,-1,2,0
0,4051,3950,-1,2,0
0,4052,1530,-1,2,0
0,4053,600,-1,2,0
0,4054,1220,-1,2,0
0,4055,830,-1,2,0
0,4056,1670,-1,2,0
0,4057,950,-1,2,0
0,4058,2180,-1,2,0
0,4059,4520,1,2,0
0,4060,2370,1,2,0
0,4061,3680,-1,2,0
0,4062,1740,1,2,0
0,4063,5660,-1,2,0
0,4064,1080,-1,2,0
0,4065,3340,-1,2,0
0,4066,490,-1,2,0
0,4067,1440,-1,2,0
0,4068,1060,-1,2,0
0,4069,600,-1,2,0
0,4070,810,-1,2,0
0,4071,710,1,2,0
0,4072,1210,-1,2,0
0,4073,2710,-1,2,0
0,4074,2690,-1,2,0
0,4075,3090,-1,2,0
0,4076,960,-1,2,0
0,4077,2720,-1,2,0
0,4078,7140,-1,2,0
0,4079,1500,-1,2,0
0,4080,2160,1,2,0
0,4081,3960,-1,2,0
0,4082,4570,-1,2,0
0,4083,1930,-1,2,0
0,4084,1520,-1,2,0
0,4085,410,-1,2,0
0,4086,830,-1,2,0
0,4087,1930,-1,2,0
0,4088,1390,-1,2,0
0,4089,2440,-1,2,0
0,4090,1830,-1,2,0
0,4091,580,-1,2,0
0,4092,2080,1,2,0
0,4093,1740,-1,2,0
0,4094,1740,-1,2,0
0,4095,3580,-1,2,0
0,4096,4400,-1,2,0
0,4097,2490,-1,2,0
0,4098,950,-1,2,0
0,4099,1720,-1,2,0
0,4100,510,-1,2,0
0,4101,2570,-1,2,0
0,4102,690,-1,2,0
0,4103,4750,-1,2,0
0,4104,800,-1,2,0
0,4105,3100,-1,2,0
0,4106,3510,-1,2,0
0,4107,5250,-1,2,0
0,4108,1650,-1,2,0
0,4109,1680,-1,2,0
0,4110,7180,-1,2,0
0,4111,1220,-1,2,0
0,4112,4760,-1,2,0
0,4113,510,-1,2,0
0,4114,8870,-1,2,0
0,4115,3060,-1,2,0
0,4116,5030,1,2,0
0,4117,1230,-1,2,0
0,4118,2530,-1,2,0
0,4119,1170,-1,2,0
0,4120,910,-1,2,0
0,4121,2870,1,2,0
0,4122,520,-1,2,0
0,4123,2980,1,2,0
0,4124,750,-1,2,0
0,4125,1070,-1,2,0
0,4126,1290,1,2,0
0,4127,1760,-1,2,0
0,4128,1110,1,2,0
0,4129,1390,-1,2,0
0,4130,1770,-1,2,0
0,4131,670,1,2,0
0,4132,1060,-1,2,0
0,4133,2190,-1,2,0
0,4134,4730,-1,2,0
0,4135,4780,-1,2,0
0,4136,3310,1,2,0
0,4137,1360,-1,2,0
0,4138,980,1,2,0
0,4139,640,1,2,0
0,4140,1160,-1,2,0
0,4141,1960,-1,2,0
0,4142,2750,-1,2,0
0,4143,900,1,2,0
0,4144,830,-1,2,0
0,4145,8400,-1,2,0
0,4146,1340,1,2,0
0,4147,2440,-1,2,0
0,4148,4830,1,2,0
0,4149,810,-1,2,0
0,4150,4100,-1,2,0
0,4151,3820,-1,2,0
0,4152,7520,-1,2,0
0,4153,3930,-1,2,0
0,4154,1340,1,2,0
0,4155,2980,-1,2,0
0,4156,1920,-1,2,0
0,4157,1610,-1,2,0
0,4158,2420,-1,2,0
0,4159,1620,-1,2,0
0,4160,2250,-1,2,0
0,4161,1280,-1,2,0
0,4162,450,-1,2,0
0,4163,2140,1,2,0
0,4164,5240,1,2,0
0,4165,1470,-1,2,0
0,4166,3960,1,2,0
0,4167,2050,-1,2,0
0,4168,1850,-1,2,0
0,4169,10740,-1,2,0
0,4170,1720,-1,2,0
0,4171,5420,1,2,0
0,4172,1180,-1,2,0
0,4173,2320,-1,2,0
0,4174,5760,-1,2,0
0,4175,460,-1,2,0
0,4176,2880,-1,2,0
0,4177,1390,1,2,0
0,4178,1460,-1,2,0
0,4179,3200,-1,2,0
0,4180,1520,-1,2,0
0,4181,2710,-1,2,0
0,4182,580,-1,2,0
0,4183,3180,-1,2,0
0,4184,3940,-1,2,0
0,4185,1980,-1,2,0
0,4186,1690,-1,2,0
0,4187,3120,-1,2,0
0,4188,2510,-1,2,0
0,4189,4770,-1,2,0
0,4190,2580,-1,2,0
0,4191,3290,-1,2,0
0,4192,4430,-1,2,0
0,4193,930,-1,2,0
0,4194,4120,-1,2,0
0,4195,730,-1,2,0
0,4196,900,-1,2,0
0,4197,1680,-1,2,0
0,4198,2160,-1,2,0
0,4199,3210,-1,2,0
0,4200,1320,-1,2,1
0,4201,2740,-1,2,1
0,4202,2030,1,2,1
0,4203,360,-1,2,1
0,4204,2540,-1,2,1
0,4205,300,1,2,1
0,4206,2320,-1,2,1
0,4207,3030,-1,2,1
0,4208,4420,1,2,1
0,4209,2020,-1,2,1
0,4210,2000,-1,2,1
0,4211,2540,-1,2,1
0,4212,1640,-1,2,1
0,4213,3410,1,2,1
0,4214,1070,1,2,1
0,4215,1570,1,2,1
0,4216,4200,-1,2,1
0,4217,2190,-1,2,1
0,4218,2220,-1,2,1
0,4219,5350,1,2,1
0,4220,860,-1,2,1
0,4221,1940,-1,2,1
0,4222,6790,1,2,1
0,4223,7020,1,2,1
0,4224,1040,-1,2,1
0,4225,840,-1,2,1
0,4226,2690,-1,2,1
0,4227,630,1,2,1
0,4228,860,-1,2,1
0,4229,1010,-1,2,1
0,4230,470,-1,2,1
0,4231,1530,-1,2,1
0,4232,2460,-1,2,1
0,4233,1380,-1,2,1
0,4234,650,-1,2,1
0,4235,540,-1,2,1
0,4236,2700,-1,2,1
0,4237,1890,-1,2,1
0,4238,500,-1,2,1
0,4239,1430,-1,2,1
0,4240,11110,-1,2,1
0,4241,2780,-1,2,1
0,4242,710,-1,2,1
0,4243,220,-1,2,1
0,4244,3380,-1,2,1
0,4245,2850,1,2,1
0,4246,3210,-1,2,1
0,4247,820,-1,2,1
0,4248,1600,1,2,1
0,4249,820,-1,2,1
0,4250,2390,1,2,1
0,4251,1700,1,2,1
0,4252,2770,-1,2,1
0,4253,1150,1,2,1
0,4254,3130,1,2,1
0,4255,3860,-1,2,1
0,4256,910,-1,2,1
0,4257,1180,1,2,1
0,4258,1930,-1,2,1
0,4259,2020,-1,2,1
0,4260,1240,-1,2,1
0,4261,1150,1,2,1
0,4262,3970,1,2,1
0,4263,1530,1,2,1
0,4264,460,-1,2,1
0,4265,1140,1,2,1
0,4266,1750,-1,2,1
0,4267,320,-1,2,1
0,4268,960,-1,2,1
0,4269,2170,-1,2,1
0,4270,2960,1,2,1
0,4271,8330,1,2,1
0,4272,1470,-1,2,1
0,4273,1700,-1,2,1
0,4274,660,-1,2,1
0,4275,740,-1,2,1
0,4276,4930,-1,2,1
0,4277,820,-1,2,1
0,4278,1120,-1,2,1
0,4279,670,-1,2,1
0,4280,980,-1,2,1
0,4281,4080,-1,2,1
0,4282,5210,1,2,1
0,4283,1400,1,2,1
0,4284,1670,-1,2,1
0,4285,1460,-1,2,1
0,4286,4380,1,2,1
0,4287,3760,1,2,1
0,4288,11350,-1,2,1
0,4289,1850,1,2,1
0,4290,1710,-1,2,1
0,4291,5570,1,2,1
0,4292,1230,1,2,1
0,4293,2910,-1,2,1
0,4294,3990,-1,2,1
0,4295,2750,-1,2,1
0,4296,500,-1,2,1
0,4297,2740,-1,2,1
0,4298,13190,-1,2,1
0,4299,1980,-1,2,1
0,4300,930,-1,2,1
0,4301,3150,1,2,1
0,4302,1660,-1,2,1
0,4303,1130,1,2,1
0,4304,1110,-1,2,1
0,4305,1240,-1,2,1
0,4306,2100,-1,2,1
0,4307,1870,-1,2,1
0,4308,1330,1,2,1
0,4309,3950,-1,2,1
0,4310,4590,-1,2,1
0,4311,4370,-1,2,1
0,4312,1290,-1,2,1
0,4313,2280,-1,2,1
0,4314,2620,-1,2,1
0,4315,13120,-1,2,1
0,4316,880,-1,2,1
0,4317,6140,-1,2,1
0,4318,1250,-1,2,1
0,4319,970,-1,2,1
0,4320,1240,-1,2,1
0,4321,1330,-1,2,1
0,4322,1670,1,2,1
0,4323,3390,-1,2,1
0,4324,2290,-1,2,1
0,4325,2620,-1,2,1
0,4326,4320,-1,2,1
0,4327,4610,-1,2,1
0,4328,3480,1,2,1
0,4329,1860,1,2,1
0,4330,2350,-1,2,1
0,4331,1520,1,2,1
0,4332,1040,-1,2,1
0,4333,2770,-1,2,1
0,4334,4600,-1,2,1
0,4335,630,-1,2,1
0,4336,540,-1,2,1
0,4337,880,1,2,1
0,4338,540,-1,2,1
0,4339,3610,-1,2,1
0,4340,2740,-1,2,1
0,4341,1160,-1,2,1
0,4342,1170,-1,2,1
0,4343,4060,1,2,1
0,4344,490,-1,2,1
0,4345,3870,1,2,1
0,4346,680,-1,2,1
0,4347,2210,-1,2,1
0,4348,1710,-1,2,1
0,4349,7260,-1,2,1
0,4350,2370,-1,2,1
0,4351,5370,1,2,1
0,4352,5220,-1,2,1
0,4353,1010,-1,2,1
0,4354,2420,-1,2,1
0,4355,1390,1,2,1
0,4356,2460,-1,2,1
0,4357,700,-1,2,1
0,4358,1760,1,2,1
0,4359,2420,1,2,1
0,4360,2570,-1,2,1
0,4361,2550,-1,2,1
0,4362,890,-1,2,1
0,4363,2250,-1,2,1
0,4364,1110,1,2,1
0,4365,7370,1,2,1
0,4366,2270,-1,2,1
0,4367,5530,-1,2,1
0,4368,10730,-1,2,1
0,4369,2750,-1,2,1
0,4370,3750,-1,2,1
0,4371,8290,-1,2,1
0,4372,8740,-1,2,1
0,4373,3850,-1,2,1
0,4374,2890,-1,2,1
0,4375,1250,-1,2,1
0,4376,3190,-1,2,1
0,4377,1370,1,2,1
0,4378,5070,-1,2,1
0,4379,2150,-1,2,1
0,4380,2300,-1,2,1
0,4381,2960,-1,2,1
0,4382,3770,1,2,1
0,4383,4790,-1,2,1
0,4384,3370,-1,2,1
0,4385,6390,-1,2,1
0,4386,1710,1,2,1
0,4387,4090,1,2,1
0,4388,2080,-1,2,1
0,4389,2360,-1,2,1
0,4390,2100,-1,2,1
0,4391,4060,1,2,1
0,4392,2280,-1,2,1
0,4393,900,-1,2,1
0,4394,880,-1,2,1
0,4395,1040,1,2,1
0,4396,4000,-1,2,1
0,4397,750,1,2,1
0,4398,2430,-1,2,1
0,4399,3030,-1,2,1
0,4400,2610,-1,2,1
0,4401,1830,1,2,1
0,4402,1080,-1,2,1
0,4403,490,-1,2,1
0,4404,770,-1,2,1
0,4405,1080,-1,2,1
0,4406,350,1,2,1
0,4407,290,-1,2,1
0,4408,710,-1,2,1
0,4409,780,-1,2,1
0,4410,710,-1,2,1
0,4411,2530,-1,2,1
0,4412,4310,-1,2,1
0,4413,880,-1,2,1
0,4414,3940,1,2,1
0,4415,530,-1,2,1
0,4416,4130,1,2,1
0,4417,750,-1,2,1
0,4418,2420,-1,2,1
0,4419,5360,-1,2,1
0,4420,4030,-1,2,1
0,4421,1470,-1,2,1
0,4422,3260,-1,2,1
0,4423,1760,-1,2,1
0,4424,570,-1,2,1
0,4425,1150,-1,2,1
0,4426,2520,-1,2,1
0,4427,2650,-1,2,1
0,4428,1430,-1,2,1
0,4429,5430,-1,2,1
0,4430,1820,1,2,1
0,4431,1990,-1,2,1
0,4432,3810,1,2,1
0,4433,1550,-1,2,1
0,4434,510,-1,2,1
0,4435,3150,1,2,1
0,4436,1510,-1,2,1
0,4437,1140,-1,2,1
0,4438,410,-1,2,1
0,4439,920,-1,2,1
0,4440,670,-1,2,1
0,4441,1880,1,2,1
0,4442,4920,-1,2,1
0,4443,770,-1,2,1
0,4444,3000,1,2,1
0,4445,2020,-1,2,1
0,4446,4370,1,2,1
0,4447,3100,-1,2,1
0,4448,1480,-1,2,1
0,4449,1160,-1,2,1
0,4450,6860,-1,2,1
0,4451,1360,-1,2,1
0,4452,2970,-1,2,1
0,4453,1030,1,2,1
0,4454,740,-1,2,1
0,4455,7350,-1,2,1
0,4456,5070,1,2,1
0,4457,2690,-1,2,1
0,4458,770,-1,2,1
0,4459,3430,1,2,1
0,4460,6860,1,2,1
0,4461,820,-1,2,1
0,4462,510,-1,2,1
0,4463,3070,-1,2,1
0,4464,360,-1,2,1
0,4465,6900,1,2,1
0,4466,2050,-1,2,1
0,4467,2340,-1,2,1
0,4468,1490,1,2,1
0,4469,5560,-1,2,1
0,4470,550,-1,2,1
0,4471,830,-1,2,1
0,4472,910,-1,2,1
0,4473,1830,-1,2,1
0,4474,730,-1,2,1
0,4475,2070,-1,2,1
0,4476,530,-1,2,1
0,4477,1980,1,2,1
0,4478,940,1,2,1
0,4479,2780,-1,2,1
0,4480,2520,-1,2,1
0,4481,1260,-1,2,1
0,4482,490,-1,2,1
0,4483,1610,-1,2,1
0,4484,5110,-1,2,1
0,4485,8320,-1,2,1
0,4486,4670,1,2,1
0,4487,440,1,2,1
0,4488,4100,-1,2,1
0,4489,2900,1,2,1
0,4490,1730,1,2,1
0,4491,4500,1,2,1
0,4492,3670,1,2,1
0,4493,970,-1,2,1
0,4494,1020,-1,2,1
0,4495,2160,1,2,1
0,4496,4210,1,2,1
0,4497,3080,1,2,1
0,4498,660,-1,2,1
0,4499,6420,-1,2,1
0,4500,3820,-1,2,1
0,4501,2390,-1,2,1
0,4502,1680,-1,2,1
0,4503,760,-1,2,1
0,4504,930,-1,2,1
0,4505,2320,-1,2,1
0,4506,2190,-1,2,1
0,4507,6460,-1,2,1
0,4508,1180,-1,2,1
0,4509,2280,-1,2,1
0,4510,4670,1,2,1
0,4511,390,-1,2,1
0,4512,7520,-1,2,1
0,4513,880,-1,2,1
0,4514,560,-1,2,1
0,4515,650,-1,2,1
0,4516,1350,1,2,1
0,4517,6340,-1,2,1
0,4518,710,-1,2,1
0,4519,3730,-1,2,1
0,4520,1470,-1,2,1
0,4521,810,-1,2,1
0,4522,3410,1,2,1
0,4523,1170,-1,2,1
0,4524,1310,-1,2,1
0,4525,4220,-1,2,1
0,4526,5610,-1,2,1
0,4527,2500,-1,2,1
0,4528,4800,-1,2,1
0,4529,690,-1,2,1
0,4530,320,-1,2,1
0,4531,1770,1,2,1
0,4532,1520,-1,2,1
0,4533,1910,-1,2,1
0,4534,3880,-1,2,1
0,4535,2050,1,2,1
0,4536,2960,-1,2,1
0,4537,2910,-1,2,1
0,4538,3740,1,2,1
0,4539,5660,-1,2,1
0,4540,2240,-1,2,1
0,4541,900,-1,2,1
0,4542,1150,-1,2,1
0,4543,1740,1,2,1
0,4544,930,-1,2,1
0,4545,1780,-1,2,1
0,4546,570,1,2,1
0,4547,860,-1,2,1
0,4548,1750,1,2,1
0,4549,580,-1,2,1
0,4550,870,-1,2,1
0,4551,640,-1,2,1
0,4552,6440,1,2,1
0,4553,920,-1,2,1
0,4554,4230,-1,2,1
0,4555,2260,-1,2,1
0,4556,4990,-1,2,1
0,4557,1310,1,2,1
0,4558,1970,-1,2,1
0,4559,490,-1,2,1
0,4560,720,-1,2,1
0,4561,1250,-1,2,1
0,4562,530,-1,2,1
0,4563,2180,1,2,1
0,4564,3230,1,2,1
0,4565,1480,-1,2,1
0,4566,750,-1,2,1
0,4567,580,-1,2,1
0,4568,2170,1,2,1
0,4569,310,-1,2,1
0,4570,5140,-1,2,1
0,4571,1330,-1,2,1
0,4572,1120,-1,2,1
0,4573,3810,-1,2,1
0,4574,6120,1,2,1
0,4575,3460,-1,2,1
0,4576,960,-1,2,1
0,4577,2660,-1,2,1
0,4578,1870,-1,2,1
0,4579,880,-1,2,1
0,4580,3980,-1,2,1
0,4581,2120,-1,2,1
0,4582,4920,1,2,1
0,4583,1480,-1,2,1
0,4584,2920,-1,2,1
0,4585,4200,-1,2,1
0,4586,3000,-1,2,1
0,4587,1040,-1,2,1
0,4588,3100,-1,2,1
0,4589,790,-1,2,1
0,4590,1590,1,2,1
0,4591,5860,1,2,1
0,4592,2870,-1,2,1
0,4593,3740,-1,2,1
0,4594,4480,-1,2,1
0,4595,2220,1,2,1
0,4596,8750,-1,2,1
0,4597,1580,-1,2,1
0,4598,1940,1,2,1
0,4599,1770,-1,2,1
0,4600,550,-1,2,1
0,4601,860,-1,2,1
0,4602,570,1,2,1
0,4603,2840,1,2,1
0,4604,7490,-1,2,1
0,4605,1500,1,2,1
0,4606,2310,-1,2,1
0,4607,13530,-1,2,1
0,4608,1610,-1,2,1
0,4609,2720,-1,2,1
0,4610,890,1,2,1
0,4611,1850,1,2,1
0,4612,1960,-1,2,1
0,4613,4530,1,2,1
0,4614,2120,-1,2,1
0,4615,2220,1,2,1
0,4616,1020,-1,2,1
0,4617,5060,-1,2,1
0,4618,730,1,2,1
0,4619,4090,1,2,1
0,4620,1660,-1,2,1
0,4621,150,-1,2,1
0,4622,620,-1,2,1
0,4623,2790,-1,2,1
0,4624,5560,-1,2,1
0,4625,5490,-1,2,1
0,4626,830,-1,2,1
0,4627,3310,-1,2,1
0,4628,200,-1,2,1
0,4629,1710,1,2,1
0,4630,1140,-1,2,1
0,4631,720,1,2,1
0,4632,3730,-1,2,1
0,4633,3910,1,2,1
0,4634,3250,-1,2,1
0,4635,3450,-1,2,1
0,4636,510,-1,2,1
0,4637,1290,-1,2,1
0,4638,1180,-1,2,1
0,4639,3880,1,2,1
0,4640,360,-1,2,1
0,4641,890,-1,2,1
0,4642,2170,-1,2,1
0,4643,1370,-1,2,1
0,4644,2430,1,2,1
0,4645,1820,-1,2,1
0,4646,440,-1,2,1
0,4647,1080,-1,2,1
0,4648,940,1,2,1
0,4649,3210,1,2,1
0,4650,1540,-1,2,1
0,4651,990,-1,2,1
0,4652,1380,1,2,1
0,4653,3210,-1,2,1
0,4654,13190,-1,2,1
0,4655,5900,-1,2,1
0,4656,3210,-1,2,1
0,4657,1550,-1,2,1
0,4658,770,-1,2,1
0,4659,1810,-1,2,1
0,4660,1990,-1,2,1
0,4661,2730,-1,2,1
0,4662,1590,1,2,1
0,4663,1140,1,2,1
0,4664,5090,-1,2,1
0,4665,2470,-1,2,1
0,4666,1270,-1,2,1
0,4667,1780,-1,2,1
0,4668,2280,-1,2,1
0,4669,1560,1,2,1
0,4670,1590,-1,2,1
0,4671,710,-1,2,1
0,4672,2410,-1,2,1
0,4673,1780,-1,2,1
0,4674,2140,-1,2,1
0,4675,940,-1,2,1
0,4676,1810,-1,2,1
0,4677,2670,-1,2,1
0,4678,290,-1,2,1
0,4679,2400,-1,2,1
0,4680,2720,-1,2,1
0,4681,2090,-1,2,1
0,4682,1070,-1,2,1
0,4683,2700,-1,2,1
0,4684,1020,-1,2,1
0,4685,3470,1,2,1
0,4686,1400,-1,2,1
0,4687,1900,1,2,1
0,4688,4040,1,2,1
0,4689,4970,-1,2,1
0,4690,1360,-1,2,1
0,4691,2620,-1,2,1
0,4692,3450,1,2,1
0,4693,1450,1,2,1
0,4694,1310,1,2,1
0,4695,9170,-1,2,1
0,4696,2480,-1,2,1
0,4697,1000,-1,2,1
0,4698,910,-1,2,1
0,4699,1360,-1,2,1
0,4700,4570,-1,2,1
0,4701,2230,-1,2,1
0,4702,830,-1,2,1
0,4703,3460,1,2,1
0,4704,1160,-1,2,1
0,4705,2580,-1,2,1
0,4706,880,1,2,1
0,4707,1320,1,2,1
0,4708,4000,-1,2,1
0,4709,3140,-1,2,1
0,4710,2750,1,2,1
0,4711,3630,1,2,1
0,4712,4680,-1,2,1
0,4713,5600,-1,2,1
0,4714,3420,1,2,1
0,4715,1070,-1,2,1
0,4716,1680,-1,2,1
0,4717,3070,-1,2,1
0,4718,700,-1,2,1
0,4719,1280,-1,2,1
0,4720,710,-1,2,1
0,4721,4420,1,2,1
0,4722,3120,-1,2,1
0,4723,4300,-1,2,1
0,4724,7730,-1,2,1
0,4725,2280,-1,2,1
0,4726,7000,-1,2,1
0,4727,1460,-1,2,1
0,4728,9000,-1,2,1
0,4729,5000,-1,2,1
0,4730,730,-1,2,1
0,4731,1950,-1,2,1
0,4732,2700,-1,2,1
0,4733,730,-1,2,1
0,4734,3130,1,2,1
0,4735,2360,-1,2,1
0,4736,430,-1,2,1
0,4737,2800,-1,2,1
0,4738,1600,-1,2,1
0,4739,940,-1,2,1
0,4740,4310,-1,2,1
0,4741,3800,1,2,1
0,4742,1660,1,2,1
0,4743,970,-1,2,1
0,4744,740,-1,2,1
0,4745,5410,-1,2,1
0,4746,16730,-1,2,1
0,4747,1630,-1,2,1
0,4748,2760,-1,2,1
0,4749,1870,-1,2,1
0,4750,4150,1,2,1
0,4751,580,1,2,1
0,4752,1510,1,2,1
0,4753,520,-1,2,1
0,4754,560,-1,2,1
0,4755,13320,1,2,1
0,4756,2800,-1,2,1
0,4757,2180,-1,2,1
0,4758,1450,-1,2,1
0,4759,6910,-1,2,1
0,4760,3840,1,2,1
0,4761,2210,1,2,1
0,4762,3700,-1,2,1
0,4763,2250,-1,2,1
0,4764,1940,1,2,1
0,4765,2860,-1,2,1
0,4766,1150,-1,2,1
0,4767,1790,-1,2,1
0,4768,2370,-1,2,1
0,4769,3140,1,2,1
0,4770,2850,-1,2,1
0,4771,3860,-1,2,1
0,4772,6710,1,2,1
0,4773,2520,-1,2,1
0,4774,3540,-1,2,1
0,4775,910,-1,2,1
0,4776,1600,-1,2,1
0,4777,1620,-1,2,1
0,4778,660,-1,2,1
0,4779,4680,1,2,1
0,4780,4000,-1,2,1
0,4781,470,-1,2,1
0,4782,4220,-1,2,1
0,4783,1180,-1,2,1
0,4784,8000,-1,2,1
0,4785,4010,-1,2,1
0,4786,1020,-1,2,1
0,4787,2480,-1,2,1
0,4788,960,-1,2,1
0,4789,2720,-1,2,1
0,4790,1520,-1,2,1
0,4791,3960,-1,2,1
0,4792,2180,-1,2,1
0,4793,2990,-1,2,1
0,4794,770,-1,2,1
0,4795,410,-1,2,1
0,4796,5260,-1,2,1
0,4797,1210,1,2,1
0,4798,3290,-1,2,1
0,4799,2960,1,2,1
0,4800,4750,1,2,2
0,4801,1380,-1,2,2
0,4802,1670,1,2,2
0,4803,1220,1,2,2
0,4804,1260,-1,2,2
0,4805,1190,-1,2,2
0,4806,4240,1,2,2
0,4807,610,1,2,2
0,4808,1770,1,2,2
0,4809,5130,-1,2,2
0,4810,760,-1,2,2
0,4811,5170,1,2,2
0,4812,450,-1,2,2
0,4813,2610,-1,2,2
0,4814,590,-1,2,2
0,4815,2090,-1,2,2
0,4816,5490,1,2,2
0,4817,890,-1,2,2
0,4818,2880,-1,2,2
0,4819,980,1,2,2
0,4820,12570,1,2,2
0,4821,1230,-1,2,2
0,4822,190,1,2,2
0,4823,2630,1,2,2
0,4824,770,-1,2,2
0,4825,1580,1,2,2
0,4826,1830,-1,2,2
0,4827,3970,-1,2,2
0,4828,560,1,2,2
0,4829,1030,1,2,2
0,4830,4190,1,2,2
0,4831,6440,-1,2,2
0,4832,1100,1,2,2
0,4833,1730,1,2,2
0,4834,4760,1,2,2
0,4835,4810,-1,2,2
0,4836,23880,1,2,2
0,4837,630,1,2,2
0,4838,750,1,2,2
0,4839,3600,1,2,2
0,4840,2930,-1,2,2
0,4841,1890,-1,2,2
0,4842,1390,1,2,2
0,4843,3110,1,2,2
0,4844,3440,1,2,2
0,4845,5160,1,2,2
0,4846,2680,1,2,2
0,4847,1030,-1,2,2
0,4848,4650,1,2,2
0,4849,1340,-1,2,2
0,4850,1050,-1,2,2
0,4851,2180,1,2,2
0,4852,360,1,2,2
0,4853,2880,1,2,2
0,4854,780,-1,2,2
0,4855,1080,1,2,2
0,4856,1300,-1,2,2
0,4857,2230,-1,2,2
0,4858,1410,-1,2,2
0,4859,2570,-1,2,2
0,4860,2930,1,2,2
0,4861,880,-1,2,2
0,4862,3030,1,2,2
0,4863,850,-1,2,2
0,4864,2070,-1,2,2
0,4865,1010,1,2,2
0,4866,1280,1,2,2
0,4867,5740,1,2,2
0,4868,1720,-1,2,2
0,4869,9660,-1,2,2
0,4870,420,-1,2,2
0,4871,930,1,2,2
0,4872,2150,-1,2,2
0,4873,1010,-1,2,2
0,4874,1540,1,2,2
0,4875,1460,1,2,2
0,4876,3260,-1,2,2
0,4877,12710,-1,2,2
0,4878,6570,-1,2,2
0,4879,460,-1,2,2
0,4880,1600,1,2,2
0,4881,2440,-1,2,2
0,4882,600,-1,2,2
0,4883,5370,-1,2,2
0,4884,1710,1,2,2
0,4885,3130,-1,2,2
0,4886,1480,-1,2,2
0,4887,910,-1,2,2
0,4888,2560,1,2,2
0,4889,730,-1,2,2
0,4890,700,1,2,2
0,4891,4610,-1,2,2
0,4892,600,-1,2,2
0,4893,3510,-1,2,2
0,4894,1030,-1,2,2
0,4895,980,-1,2,2
0,4896,730,-1,2,2
0,4897,620,-1,2,2
0,4898,2570,-1,2,2
0,4899,1830,-1,2,2
0,4900,2800,-1,2,2
0,4901,3390,1,2,2
0,4902,3670,1,2,2
0,4903,1030,-1,2,2
0,4904,7310,1,2,2
0,4905,1690,-1,2,2
0,4906,520,-1,2,2
0,4907,3080,-1,2,2
0,4908,870,-1,2,2
0,4909,3870,1,2,2
0,4910,4310,-1,2,2
0,4911,1100,1,2,2
0,4912,6350,-1,2,2
0,4913,3240,1,2,2
0,4914,8060,-1,2,2
0,4915,3510,-1,2,2
0,4916,690,1,2,2
0,4917,1500,1,2,2
0,4918,4190,-1,2,2
0,4919,1270,-1,2,2
0,4920,4830,1,2,2
0,4921,2230,-1,2,2
0,4922,3860,1,2,2
0,4923,5030,1,2,2
0,4924,1480,1,2,2
0,4925,1240,-1,2,2
0,4926,3810,1,2,2
0,4927,3530,1,2,2
0,4928,1520,-1,2,2
0,4929,770,-1,2,2
0,4930,5150,-1,2,2
0,4931,1610,1,2,2
0,4932,4730,1,2,2
0,4933,920,-1,2,2
0,4934,1360,1,2,2
0,4935,5580,1,2,2
0,4936,4030,-1,2,2
0,4937,1020,-1,2,2
0,4938,920,-1,2,2
0,4939,670,-1,2,2
0,4940,740,1,2,2
0,4941,1150,-1,2,2
0,4942,4780,-1,2,2
0,4943,1610,-1,2,2
0,4944,6040,-1,2,2
0,4945,6800,-1,2,2
0,4946,2420,-1,2,2
0,4947,2970,-1,2,2
0,4948,1100,-1,2,2
0,4949,10520,-1,2,2
0,4950,6830,-1,2,2
0,4951,2290,-1,2,2
0,4952,8030,-1,2,2
0,4953,2530,1,2,2
0,4954,3330,1,2,2
0,4955,1690,1,2,2
0,4956,1680,1,2,2
0,4957,5010,1,2,2
0,4958,1660,1,2,2
0,4959,1330,-1,2,2
0,4960,6910,1,2,2
0,4961,1430,-1,2,2
0,4962,1290,1,2,2
0,4963,3980,-1,2,2
0,4964,1860,1,2,2
0,4965,2440,-1,2,2
0,4966,710,-1,2,2
0,4967,8110,1,2,2
0,4968,1460,-1,2,2
0,4969,4610,-1,2,2
0,4970,2880,1,2,2
0,4971,3350,1,2,2
0,4972,2060,-1,2,2
0,4973,530,-1,2,2
0,4974,2350,-1,2,2
0,4975,6890,1,2,2
0,4976,3770,1,2,2
0,4977,1870,1,2,2
0,4978,2030,-1,2,2
0,4979,3490,1,2,2
0,4980,5890,1,2,2
0,4981,3080,1,2,2
0,4982,4000,-1,2,2
0,4983,930,1,2,2
0,4984,4280,-1,2,2
0,4985,5060,-1,2,2
0,4986,1310,1,2,2
0,4987,6150,1,2,2
0,4988,1660,1,2,2
0,4989,1360,1,2,2
0,4990,1500,1,2,2
0,4991,2870,1,2,2
0,4992,670,1,2,2
0,4993,3980,1,2,2
0,4994,2880,-1,2,2
0,4995,6200,-1,2,2
0,4996,6410,1,2,2
0,4997,880,1,2,2
0,4998,2840,-1,2,2
0,4999,3590,-1,2,2
0,5000,6570,1,2,2
0,5001,3250,1,2,2
0,5002,2900,-1,2,2
0,5003,500,-1,2,2
0,5004,480,-1,2,2
0,5005,950,-1,2,2
0,5006,1720,1,2,2
0,5007,1130,-1,2,2
0,5008,2240,-1,2,2
0,5009,880,-1,2,2
0,5010,540,1,2,2
0,5011,880,-1,2,2
0,5012,12860,-1,2,2
0,5013,870,1,2,2
0,5014,1250,1,2,2
0,5015,1220,1,2,2
0,5016,1740,1,2,2
0,5017,2260,1,2,2
0,5018,5820,-1,2,2
0,5019,740,-1,2,2
0,5020,2640,1,2,2
0,5021,1890,1,2,2
0,5022,800,-1,2,2
0,5023,7380,1,2,2
0,5024,5770,1,2,2
0,5025,6090,1,2,2
0,5026,2660,1,2,2
0,5027,1750,1,2,2
0,5028,2080,-1,2,2
0,5029,4390,1,2,2
0,5030,1630,-1,2,2
0,5031,15570,-1,2,2
0,5032,1270,1,2,2
0,5033,1680,-1,2,2
0,5034,520,1,2,2
0,5035,3900,-1,2,2
0,5036,290,-1,2,2
0,5037,3440,1,2,2
0,5038,2690,1,2,2
0,5039,3970,1,2,2
0,5040,590,-1,2,2
0,5041,1230,1,2,2
0,5042,3570,1,2,2
0,5043,4630,-1,2,2
0,5044,1440,1,2,2
0,5045,1470,-1,2,2
0,5046,3880,-1,2,2
0,5047,3940,1,2,2
0,5048,4780,-1,2,2
0,5049,6750,1,2,2
0,5050,2460,1,2,2
0,5051,4200,-1,2,2
0,5052,5170,-1,2,2
0,5053,8880,-1,2,2
0,5054,990,1,2,2
0,5055,4210,-1,2,2
0,5056,1070,-1,2,2
0,5057,3020,-1,2,2
0,5058,990,1,2,2
0,5059,2670,1,2,2
0,5060,1640,1,2,2
0,5061,670,-1,2,2
0,5062,6580,1,2,2
0,5063,540,-1,2,2
0,5064,5750,-1,2,2
0,5065,6540,1,2,2
0,5066,1370,1,2,2
0,5067,1880,1,2,2
0,5068,470,-1,2,2
0,5069,1430,1,2,2
0,5070,960,-1,2,2
0,5071,2280,-1,2,2
0,5072,870,-1,2,2
0,5073,3710,-1,2,2
0,5074,3910,1,2,2
0,5075,4090,-1,2,2
0,5076,840,1,2,2
0,5077,540,-1,2,2
0,5078,1130,1,2,2
0,5079,860,-1,2,2
0,5080,1490,1,2,2
0,5081,1990,-1,2,2
0,5082,5490,1,2,2
0,5083,1600,1,2,2
0,5084,4890,1,2,2
0,5085,940,1,2,2
0,5086,2400,-1,2,2
0,5087,3210,1,2,2
0,5088,2010,-1,2,2
0,5089,2450,1,2,2
0,5090,1790,-1,2,2
0,5091,2520,1,2,2
0,5092,4860,1,2,2
0,5093,690,1,2,2
0,5094,2890,1,2,2
0,5095,1480,1,2,2
0,5096,2810,-1,2,2
0,5097,690,1,2,2
0,5098,6600,-1,2,2
0,5099,590,-1,2,2
0,5100,1720,1,2,3
0,5101,6390,1,2,3
0,5102,2870,-1,2,3
0,5103,610,-1,2,3
0,5104,1240,1,2,3
0,5105,1500,1,2,3
0,5106,1460,1,2,3
0,5107,540,1,2,3
0,5108,4330,-1,2,3
0,5109,2380,1,2,3
0,5110,730,-1,2,3
0,5111,2390,-1,2,3
0,5112,750,-1,2,3
0,5113,1710,1,2,3
0,5114,2470,-1,2,3
0,5115,1000,1,2,3
0,5116,2790,-1,2,3
0,5117,830,-1,2,3
0,5118,3080,-1,2,3
0,5119,2270,1,2,3
0,5120,1010,1,2,3
0,5121,770,1,2,3
0,5122,850,1,2,3
0,5123,1140,-1,2,3
0,5124,2120,1,2,3
0,5125,380,-1,2,3
0,5126,960,-1,2,3
0,5127,2180,1,2,3
0,5128,1340,1,2,3
0,5129,4340,1,2,3
0,5130,590,-1,2,3
0,5131,3540,1,2,3
0,5132,2030,-1,2,3
0,5133,3520,-1,2,3
0,5134,2090,-1,2,3
0,5135,820,1,2,3
0,5136,1120,1,2,3
0,5137,8550,1,2,3
0,5138,1460,1,2,3
0,5139,4620,1,2,3
0,5140,1780,-1,2,3
0,5141,780,-1,2,3
0,5142,5550,-1,2,3
0,5143,1190,1,2,3
0,5144,1100,1,2,3
0,5145,960,1,2,3
0,5146,3390,-1,2,3
0,5147,4420,-1,2,3
0,5148,3540,-1,2,3
0,5149,1240,-1,2,3
0,5150,220,-1,2,3
0,5151,880,1,2,3
0,5152,910,-1,2,3
0,5153,1850,-1,2,3
0,5154,3330,1,2,3
0,5155,1340,1,2,3
0,5156,4230,1,2,3
0,5157,1550,-1,2,3
0,5158,5870,1,2,3
0,5159,4210,1,2,3
0,5160,1710,-1,2,3
0,5161,8780,-1,2,3
0,5162,4390,-1,2,3
0,5163,1370,1,2,3
0,5164,760,-1,2,3
0,5165,1790,-1,2,3
0,5166,1630,1,2,3
0,5167,1150,1,2,3
0,5168,2050,1,2,3
0,5169,3310,1,2,3
0,5170,4660,1,2,3
0,5171,4800,1,2,3
0,5172,880,-1,2,3
0,5173,450,-1,2,3
0,5174,4430,-1,2,3
0,5175,2960,-1,2,3
0,5176,1040,1,2,3
0,5177,1460,1,2,3
0,5178,14090,1,2,3
0,5179,910,1,2,3
0,5180,2180,-1,2,3
0,5181,1460,-1,2,3
0,5182,1440,1,2,3
0,5183,2240,-1,2,3
0,5184,3110,-1,2,3
0,5185,2740,1,2,3
0,5186,560,1,2,3
0,5187,9110,1,2,3
0,5188,910,-1,2,3
0,5189,2890,-1,2,3
0,5190,3710,1,2,3
0,5191,1070,-1,2,3
0,5192,900,1,2,3
0,5193,4600,1,2,3
0,5194,1960,-1,2,3
0,5195,2700,1,2,3
0,5196,880,1,2,3
0,5197,480,-1,2,3
0,5198,2380,1,2,3
0,5199,1540,1,2,3
0,5200,1310,1,2,3
0,5201,2510,-1,2,3
0,5202,2250,1,2,3
0,5203,3150,-1,2,3
0,5204,2040,1,2,3
0,5205,1270,-1,2,3
0,5206,1140,1,2,3
0,5207,4510,1,2,3
0,5208,1380,1,2,3
0,5209,310,1,2,3
0,5210,1230,-1,2,3
0,5211,1240,1,2,3
0,5212,690,1,2,3
0,5213,4160,1,2,3
0,5214,1120,1,2,3
0,5215,2330,1,2,3
0,5216,1560,1,2,3
0,5217,3450,-1,2,3
0,5218,820,1,2,3
0,5219,790,-1,2,3
0,5220,2350,1,2,3
0,5221,720,1,2,3
0,5222,3090,1,2,3
0,5223,630,1,2,3
0,5224,690,-1,2,3
0,5225,1840,1,2,3
0,5226,1130,-1,2,3
0,5227,3780,-1,2,3
0,5228,1130,-1,2,3
0,5229,2650,1,2,3
0,5230,6240,-1,2,3
0,5231,1020,1,2,3
0,5232,1600,1,2,3
0,5233,1380,1,2,3
0,5234,1730,1,2,3
0,5235,3010,-1,2,3
0,5236,3290,-1,2,3
0,5237,1440,1,2,3
0,5238,4330,-1,2,3
0,5239,1120,1,2,3
0,5240,2110,1,2,3
0,5241,3530,1,2,3
0,5242,1450,1,2,3
0,5243,4430,1,2,3
0,5244,9850,1,2,3
0,5245,2930,1,2,3
0,5246,710,1,2,3
0,5247,5870,-1,2,3
0,5248,4130,1,2,3
0,5249,3720,1,2,3
0,5250,2140,1,2,3
0,5251,440,-1,2,3
0,5252,2350,1,2,3
0,5253,3240,1,2,3
0,5254,1300,-1,2,3
0,5255,700,-1,2,3
0,5256,1230,1,2,3
0,5257,7860,1,2,3
0,5258,1370,1,2,3
0,5259,4030,1,2,3
0,5260,2350,1,2,3
0,5261,2690,1,2,3
0,5262,400,-1,2,3
0,5263,1090,1,2,3
0,5264,1980,1,2,3
0,5265,2360,1,2,3
0,5266,720,-1,2,3
0,5267,3800,1,2,3
0,5268,1440,-1,2,3
0,5269,720,-1,2,3
0,5270,2200,1,2,3
0,5271,2680,-1,2,3
0,5272,13290,1,2,3
0,5273,500,1,2,3
0,5274,3790,1,2,3
0,5275,690,-1,2,3
0,5276,510,-1,2,3
0,5277,2110,1,2,3
0,5278,5540,1,2,3
0,5279,4130,1,2,3
0,5280,1100,1,2,3
0,5281,3930,1,2,3
0,5282,6830,-1,2,3
0,5283,730,-1,2,3
0,5284,410,-1,2,3
0,5285,1640,-1,2,3
0,5286,3690,-1,2,3
0,5287,680,1,2,3
0,5288,4020,1,2,3
0,5289,740,-1,2,3
0,5290,590,-1,2,3
0,5291,3210,-1,2,3
0,5292,1660,1,2,3
0,5293,7030,1,2,3
0,5294,900,-1,2,3
0,5295,1960,1,2,3
0,5296,4010,1,2,3
0,5297,9000,1,2,3
0,5298,11320,-1,2,3
0,5299,910,-1,2,3
0,5300,230,-1,2,3
0,5301,840,-1,2,3
0,5302,1110,-1,2,3
0,5303,3220,-1,2,3
0,5304,910,-1,2,3
0,5305,1290,-1,2,3
0,5306,990,1,2,3
0,5307,4220,1,2,3
0,5308,2480,1,2,3
0,5309,3660,-1,2,3
0,5310,5070,1,2,3
0,5311,2180,-1,2,3
0,5312,9400,-1,2,3
0,5313,3620,1,2,3
0,5314,250,-1,2,3
0,5315,700,-1,2,3
0,5316,2150,1,2,3
0,5317,10550,1,2,3
0,5318,1180,1,2,3
0,5319,5350,1,2,3
0,5320,500,1,2,3
0,5321,1760,1,2,3
0,5322,2630,1,2,3
0,5323,610,-1,2,3
0,5324,3360,-1,2,3
0,5325,1700,-1,2,3
0,5326,1690,1,2,3
0,5327,1360,1,2,3
0,5328,830,1,2,3
0,5329,600,1,2,3
0,5330,730,-1,2,3
0,5331,870,-1,2,3
0,5332,4170,1,2,3
0,5333,6200,1,2,3
0,5334,2360,-1,2,3
0,5335,1030,-1,2,3
0,5336,1410,1,2,3
0,5337,3970,1,2,3
0,5338,1050,-1,2,3
0,5339,820,-1,2,3
0,5340,2460,1,2,3
0,5341,500,-1,2,3
0,5342,1250,-1,2,3
0,5343,2190,1,2,3
0,5344,2150,1,2,3
0,5345,6490,1,2,3
0,5346,3530,1,2,3
0,5347,1450,1,2,3
0,5348,670,-1,2,3
0,5349,7600,1,2,3
0,5350,2900,-1,2,3
0,5351,1810,1,2,3
0,5352,3560,1,2,3
0,5353,1870,-1,2,3
0,5354,450,-1,2,3
0,5355,3150,-1,2,3
0,5356,2180,1,2,3
0,5357,1870,1,2,3
0,5358,2290,1,2,3
0,5359,2760,-1,2,3
0,5360,480,-1,2,3
0,5361,1400,-1,2,3
0,5362,790,1,2,3
0,5363,2470,-1,2,3
0,5364,2270,-1,2,3
0,5365,450,1,2,3
0,5366,1450,-1,2,3
0,5367,6280,1,2,3
0,5368,1490,-1,2,3
0,5369,5410,-1,2,3
0,5370,3260,1,2,3
0,5371,1830,1,2,3
0,5372,440,-1,2,3
0,5373,1440,-1,2,3
0,5374,2250,-1,2,3
0,5375,1680,1,2,3
0,5376,4900,1,2,3
0,5377,1560,-1,2,3
0,5378,550,-1,2,3
0,5379,2320,-1,2,3
0,5380,1930,1,2,3
0,5381,4520,1,2,3
0,5382,4630,1,2,3
0,5383,6860,1,2,3
0,5384,2670,1,2,3
0,5385,1620,1,2,3
0,5386,920,1,2,3
0,5387,970,-1,2,3
0,5388,1020,1,2,3
0,5389,3680,1,2,3
0,5390,1800,1,2,3
0,5391,2510,1,2,3
0,5392,1410,1,2,3
0,5393,1100,1,2,3
0,5394,4920,1,2,3
0,5395,1490,-1,2,3
0,5396,2970,1,2,3
0,5397,1850,1,2,3
0,5398,1520,1,2,3
0,5399,1360,1,2,3
0,5400,3080,-1,3,0
0,5401,440,-1,3,0
0,5402,2620,-1,3,0
0,5403,950,-1,3,0
0,5404,980,-1,3,0
0,5405,1010,-1,3,0
0,5406,2200,-1,3,0
0,5407,850,-1,3,0
0,5408,1090,-1,3,0
0,5409,910,-1,3,0
0,5410,630,-1,3,0
0,5411,900,-1,3,0
0,5412,4760,-1,3,0
0,5413,3470,-1,3,0
0,5414,1280,-1,3,0
0,5415,840,-1,3,0
0,5416,640,1,3,0
0,5417,1020,-1,3,0
0,5418,1690,-1,3,0
0,5419,2030,-1,3,0
0,5420,550,-1,3,0
0,5421,4470,-1,3,0
0,5422,2250,-1,3,0
0,5423,2500,-1,3,0
0,5424,1590,-1,3,0
0,5425,2300,-1,3,0
0,5426,2010,-1,3,0
0,5427,660,-1,3,0
0,5428,1580,-1,3,0
0,5429,880,-1,3,0
0,5430,1840,-1,3,0
0,5431,4850,-1,3,0
0,5432,1140,-1,3,0
0,5433,2440,-1,3,0
0,5434,600,-1,3,0
0,5435,710,-1,3,0
0,5436,2220,-1,3,0
0,5437,920,-1,3,0
0,5438,3260,-1,3,0
0,5439,2700,-1,3,0
0,5440,1250,-1,3,0
0,5441,520,-1,3,0
0,5442,1680,-1,3,0
0,5443,750,-1,3,0
0,5444,2860,-1,3,0
0,5445,2830,-1,3,0
0,5446,1680,-1,3,0
0,5447,2220,-1,3,0
0,5448,780,-1,3,0
0,5449,5040,-1,3,0
0,5450,970,-1,3,0
0,5451,1260,-1,3,0
0,5452,1540,-1,3,0
0,5453,500,-1,3,0
0,5454,1010,-1,3,0
0,5455,1900,-1,3,0
0,5456,4180,-1,3,0
0,5457,2270,-1,3,0
0,5458,1770,-1,3,0
0,5459,530,-1,3,0
0,5460,430,-1,3,0
0,5461,1510,-1,3,0
0,5462,4400,-1,3,0
0,5463,1350,-1,3,0
0,5464,640,-1,3,0
0,5465,670,-1,3,0
0,5466,700,-1,3,0
0,5467,1660,-1,3,0
0,5468,930,1,3,0
0,5469,2530,-1,3,0
0,5470,880,-1,3,0
0,5471,1620,-1,3,0
0,5472,800,-1,3,0
0,5473,760,-1,3,0
0,5474,3360,-1,3,0
0,5475,5110,-1,3,0
0,5476,1590,-1,3,0
0,5477,4790,-1,3,0
0,5478,3180,1,3,0
0,5479,4400,1,3,0
0,5480,1780,-1,3,0
0,5481,1740,-1,3,0
0,5482,600,-1,3,0
0,5483,1310,-1,3,0
0,5484,3700,-1,3,0
0,5485,1970,-1,3,0
0,5486,1550,-1,3,0
0,5487,2320,-1,3,0
0,5488,1000,-1,3,0
0,5489,1810,-1,3,0
0,5490,2790,-1,3,0
0,5491,1660,-1,3,0
0,5492,980,-1,3,0
0,5493,1060,-1,3,0
0,5494,1060,-1,3,0
0,5495,3800,-1,3,0
0,5496,680,-1,3,0
0,5497,640,-1,3,0
0,5498,880,-1,3,0
0,5499,820,-1,3,0
0,5500,2200,-1,3,0
0,5501,4170,-1,3,0
0,5502,460,-1,3,0
0,5503,1350,-1,3,0
0,5504,600,-1,3,0
0,5505,1070,-1,3,0
0,5506,320,-1,3,0
0,5507,1120,1,3,0
0,5508,910,1,3,0
0,5509,2120,-1,3,0
0,5510,2570,-1,3,0
0,5511,1440,-1,3,0
0,5512,2570,-1,3,0
0,5513,4130,-1,3,0
0,5514,540,-1,3,0
0,5515,2090,-1,3,0
0,5516,2010,-1,3,0
0,5517,320,-1,3,0
0,5518,1040,-1,3,0
0,5519,900,-1,3,0
0,5520,960,-1,3,0
0,5521,3580,-1,3,0
0,5522,2330,-1,3,0
0,5523,2250,-1,3,0
