,Part,TrialN,PairID,LItem,LVal,RItem,RVal,Choice,RT,Conf,ConfRT,BlockCond,DDT,LDwellTime,RDwellTime,GSF,LastFixat,DVal,zDVal,AbsDVal,zAbsDVal,zConf,zRT,DFam,LFam,RFam,TotFam,TotVal,ChosenFam,UnchosenFam,ChosenVal,UnchosenVal,Correct,LValConfBDM,LFamConfBDM,RValConfBDM,RFamConfBDM,zDFam,zTotFam,zTotVal,zChosenVal,zUnchosenVal,zChosenFam,zUnchosenFam,zGSF,zDDT,zAbsDDT,zAbsDFam,zLVal,zRVal,zLFam,zRFam,zLValConfBDM,zLFamConfBDM,zRValConfBDM,zRFamConfBDM,ConfSplit,GSFSplit,DDTSplit
0,1,6,39,50_nakd_rhubarb_and_custard.png,0.65,39_milkyway.png,1.25,0,5595,86,4134,2.0,-2305,3511,1206,3,1,0.6,0.968245836551854,0.6,0.26452750578736545,1.030926069686385,1.5258398755970064,4.08,0.0,4.08,4.08,1.9,0.0,4.08,0.65,1.25,1,91.67,100.0,76.67,81.67,2.1792883958817244,-1.6472878327995368,-1.7346568663044222,-1.932083916663526,-0.5611133146446553,-2.7351193042438817,0.214901033519525,0.3580227314427213,-3.5260907537475914,3.5260907537475914,2.1792883958817244,-1.9161719002401687,-0.5595900239639454,-2.6763825874539946,0.2032695636040934,0.7113672860358228,1.3830451008503275,-0.5398894955464879,-1.2554163075020452,1,1,0
1,1,8,16,116_boots_caramels.png,0.95,104_graze_sriracha.png,0.65,1,6091,72,2107,2.0,1331,1858,3189,2,2,-0.29999999999999993,-0.4841229182759269,0.29999999999999993,-0.5708225124885278,-0.016205609317923964,1.8380767208263973,-0.75,1.08,0.33,1.41,1.6,0.33,1.08,0.65,0.95,1,36.67,96.67,81.67,81.67,-0.40060448453708175,-2.9024985958060308,-2.20990532282618,-1.932083916663526,-1.2310993619815531,-2.498418528545252,-1.8701110151809768,-0.38915514287252345,2.394283276233818,2.394283276233818,0.40060448453708175,-1.2378809621020572,-1.9161719002401691,-1.9141217239386188,-2.4434695458242937,-3.8765742464326602,0.9037174145539066,-0.1228039016857171,-1.2554163075020452,1,0,1
2,1,11,37,13_fruit_pastilles.png,1.1,115_shapers_blueberry.png,1.1,0,3301,84,3204,2.0,-521,1595,1074,2,1,0.0,1.0451085762029443e-17,0.0,-1.4061725307644208,0.8813358298286262,0.08174446641107165,-3.0,4.33,1.33,5.66,2.2,4.33,1.33,1.1,1.1,1,86.67,86.67,81.67,81.67,-1.6024179381483268,-0.9045039355897015,-1.2594084097826643,-0.9016391611096468,-0.896106338313104,0.37068178295328935,-1.6963600111226014,-0.38915514287252345,-0.6212647720405409,0.6212647720405409,1.6024179381483268,-0.8987354930330009,-0.8987354930330013,0.3797188375659845,-1.7376724499767238,0.2942816921750516,-0.5357050668167278,-0.1228039016857171,-1.2554163075020452,1,0,0
3,1,22,38,56_marshmallows.png,0.95,38_milkybar.png,0.8,0,3641,56,2259,2.0,-244,1672,1428,2,1,-0.1499999999999999,-0.2420614591379633,0.1499999999999999,-0.9884975216264744,-1.212927528179991,0.2957777877376705,0.5,3.83,4.33,8.16,1.75,3.83,4.33,0.95,0.8,0,76.67,91.67,86.67,96.67,0.2670696563580545,0.2707870410081389,-1.9722810945653009,-1.2451207462942735,-1.566092385650002,0.012044244015971631,0.3886520375779001,-0.38915514287252345,-0.1702351773472377,0.1702351773472377,0.2670696563580545,-1.2378809621020572,-1.5770264311711133,0.026820289642199385,0.3797188375659859,-0.5398894955464907,0.18400617386858945,0.2942816921750538,0.903717414553907,0,0,0
4,1,32,60,57_food_doctor_mild_korma_crisps.png,1.25,110_bombay_mix.png,1.4,0,8388,46,2465,2.0,-549,4045,3496,4,1,0.1499999999999999,0.2420614591379633,0.1499999999999999,-0.9884975216264744,-1.9608787274687833,3.284060659318155,3.5,0.08,3.58,3.66,2.65,0.08,3.58,1.25,1.4,1,66.67,86.67,71.67,76.67,1.8694875945063811,-1.844736716867974,-0.5465357250000284,-0.5581575759250207,-0.22612029097620664,-2.6777372980139114,-0.13260097459722528,1.1052006057579662,-0.6668562112153151,0.6668562112153151,1.8694875945063811,-0.5595900239639451,-0.2204445548948897,-2.619918819786189,-0.14962898431969152,-1.3740606832680329,-0.5357050668167278,-0.9569750894072591,-1.9751275481873627,0,1,0
5,1,34,57,40_nestle_rolo.png,1.1,48_mentos_mint.png,0.95,1,2183,74,2091,2.0,712,638,1350,1,2,-0.15000000000000013,-0.2420614591379637,0.15000000000000013,-0.9884975216264741,0.1333846305398344,-0.6220474548922741,-0.5,4.08,3.58,7.66,2.05,3.58,4.08,0.95,1.1,1,76.67,81.67,81.67,86.67,-0.2670696563580545,0.035728845688570834,-1.4970326380435437,-1.2451207462942735,-0.896106338313104,-0.16727452545268726,0.214901033519525,-1.1363330171877684,1.3863868173343428,1.3863868173343428,0.2670696563580545,-0.8987354930330009,-1.2378809621020574,0.20326956360409196,-0.14962898431969152,-0.5398894955464907,-1.2554163075020448,-0.1228039016857171,-0.5357050668167279,1,0,1
6,1,40,40,2_maynards_winegums.png,1.1,27_mars.png,0.95,1,4458,66,2996,2.0,172,1716,1888,3,2,-0.15000000000000013,-0.2420614591379637,0.15000000000000013,-0.9884975216264741,-0.4649763288911991,0.8100872686901155,0.5,4.08,4.58,8.66,2.05,4.58,4.08,0.95,1.1,1,91.67,91.67,96.67,86.67,0.2670696563580545,0.5058452363277071,-1.4970326380435437,-1.2451207462942735,-0.896106338313104,0.5500005524219482,0.214901033519525,0.3580227314427213,0.5071233475351237,0.5071233475351237,0.2670696563580545,-0.8987354930330009,-1.2378809621020574,0.20326956360409196,0.5561681115278784,0.7113672860358228,0.18400617386858945,1.1284528798965956,-0.5357050668167279,0,1,1
7,1,41,57,40_nestle_rolo.png,1.1,48_mentos_mint.png,0.95,0,2009,80,3501,1.0,-213,859,646,2,1,-0.15000000000000013,-0.2420614591379637,0.15000000000000013,-0.9884975216264741,0.5821553501131095,-0.7315821546300041,-0.5,4.08,3.58,7.66,2.05,4.08,3.58,1.1,0.95,1,76.67,81.67,81.67,86.67,-0.2670696563580545,0.035728845688570834,-1.4970326380435437,-0.9016391611096468,-1.2310993619815531,0.19136301348463047,-0.13260097459722528,-0.38915514287252345,-0.11975894111802328,0.11975894111802328,0.2670696563580545,-0.8987354930330009,-1.2378809621020574,0.20326956360409196,-0.14962898431969152,-0.5398894955464907,-1.2554163075020448,-0.1228039016857171,-0.5357050668167279,1,0,0
8,1,44,60,57_food_doctor_mild_korma_crisps.png,1.25,110_bombay_mix.png,1.4,1,7466,42,2083,1.0,-133,3184,3051,5,2,0.1499999999999999,0.2420614591379633,0.1499999999999999,-0.9884975216264744,-2.2600592071842995,2.7036526526619085,3.5,0.08,3.58,3.66,2.65,3.58,0.08,1.4,1.25,1,66.67,86.67,71.67,76.67,1.8694875945063811,-1.844736716867974,-0.5465357250000284,-0.2146759907403945,-0.5611133146446553,-0.16727452545268726,-2.5651150314144773,1.8523784800732108,0.01050231366704621,0.01050231366704621,1.8694875945063811,-0.5595900239639451,-0.2204445548948897,-2.619918819786189,-0.14962898431969152,-1.3740606832680329,-0.5357050668167278,-0.9569750894072591,-1.9751275481873627,0,1,0
9,1,53,38,56_marshmallows.png,0.95,38_milkybar.png,0.8,0,5716,58,1441,1.0,-1054,2948,1894,4,1,-0.1499999999999999,-0.2420614591379633,0.1499999999999999,-0.9884975216264744,-1.0633372883222325,1.6020105575985313,0.5,3.83,4.33,8.16,1.75,3.83,4.33,0.95,0.8,1,76.67,91.67,86.67,96.67,0.2670696563580545,0.2707870410081389,-1.9722810945653009,-1.2451207462942735,-1.566092385650002,0.012044244015971631,0.3886520375779001,1.1052006057579662,-1.4891303820460662,1.4891303820460662,0.2670696563580545,-1.2378809621020572,-1.5770264311711133,0.026820289642199385,0.3797188375659859,-0.5398894955464907,0.18400617386858945,0.2942816921750538,0.903717414553907,0,1,0
10,1,60,37,13_fruit_pastilles.png,1.1,115_shapers_blueberry.png,1.1,0,6698,66,2809,1.0,-1497,3459,1962,4,1,0.0,1.0451085762029443e-17,0.0,-1.4061725307644208,-0.4649763288911991,2.2201891503712377,-3.0,4.33,1.33,5.66,2.2,4.33,1.33,1.1,1.1,1,86.67,86.67,81.67,81.67,-1.6024179381483268,-0.9045039355897015,-1.2594084097826643,-0.9016391611096468,-0.896106338313104,0.37068178295328935,-1.6963600111226014,1.1052006057579662,-2.2104520804183885,2.2104520804183885,1.6024179381483268,-0.8987354930330009,-0.8987354930330013,0.3797188375659845,-1.7376724499767238,0.2942816921750516,-0.5357050668167278,-0.1228039016857171,-1.2554163075020452,0,1,0
11,1,61,40,2_maynards_winegums.png,1.1,27_mars.png,0.95,0,2913,70,1767,1.0,-249,1325,1076,2,1,-0.15000000000000013,-0.2420614591379637,0.15000000000000013,-0.9884975216264741,-0.16579584917568232,-0.16250532380869415,0.5,4.08,4.58,8.66,2.05,4.08,4.58,1.1,0.95,1,91.67,91.67,96.67,86.67,0.2670696563580545,0.5058452363277071,-1.4970326380435437,-0.9016391611096468,-1.2310993619815531,0.19136301348463047,0.5624030416362753,-0.38915514287252345,-0.17837650577130454,0.17837650577130454,0.2670696563580545,-0.8987354930330009,-1.2378809621020574,0.20326956360409196,0.5561681115278784,0.7113672860358228,0.18400617386858945,1.1284528798965956,-0.5357050668167279,0,1,0
12,1,68,16,116_boots_caramels.png,0.95,104_graze_sriracha.png,0.65,0,4784,58,2323,1.0,594,1718,2312,2,1,-0.29999999999999993,-0.4841229182759269,0.29999999999999993,-0.5708225124885278,-1.0633372883222325,1.0153074532562074,-0.75,1.08,0.33,1.41,1.6,1.08,0.33,0.95,0.65,1,36.67,96.67,81.67,81.67,-0.40060448453708175,-2.9024985958060308,-2.20990532282618,-1.2451207462942735,-1.9010854093184508,-1.960462220139276,-2.391364027356102,-0.38915514287252345,1.1942514665263653,1.1942514665263653,0.40060448453708175,-1.2378809621020572,-1.9161719002401691,-1.9141217239386188,-2.4434695458242937,-3.8765742464326602,0.9037174145539066,-0.1228039016857171,-1.2554163075020452,0,1,1
13,1,74,39,50_nakd_rhubarb_and_custard.png,0.65,39_milkyway.png,1.25,1,3579,76,1792,1.0,-447,1624,1177,5,2,0.6,0.968245836551854,0.6,0.26452750578736545,0.2829748703975928,0.25674818208399663,4.08,0.0,4.08,4.08,1.9,4.08,0.0,1.25,0.65,1,91.67,100.0,76.67,81.67,2.1792883958817244,-1.6472878327995368,-1.7346568663044222,-0.5581575759250207,-1.9010854093184508,0.19136301348463047,-2.6207153527131566,1.8523784800732108,-0.5007731113643515,0.5007731113643515,2.1792883958817244,-1.9161719002401687,-0.5595900239639454,-2.6763825874539946,0.2032695636040934,0.7113672860358228,1.3830451008503275,-0.5398894955464879,-1.2554163075020452,0,1,0
14,1,92,57,48_mentos_mint.png,0.95,40_nestle_rolo.png,1.1,0,2037,64,2046,2.0,-464,1024,560,2,1,0.15000000000000013,0.2420614591379637,0.15000000000000013,-0.9884975216264741,-0.6145665687489574,-0.7139558811089901,0.5,3.58,4.08,7.66,2.05,3.58,4.08,0.95,1.1,1,81.67,86.67,76.67,81.67,0.2670696563580545,0.035728845688570834,-1.4970326380435437,-1.2451207462942735,-0.896106338313104,-0.16727452545268726,0.214901033519525,-0.38915514287252345,-0.5284536280061788,0.5284536280061788,0.2670696563580545,-1.2378809621020572,-0.8987354930330013,-0.14962898431969315,0.2032695636040934,-0.12280390168571954,-0.5357050668167278,-0.5398894955464879,-1.2554163075020452,0,0,0
15,1,103,18,29_mms_peanut.png,1.1,55_bassetts_licorice_allsorts.png,0.35,1,1621,98,1488,2.0,251,532,783,1,2,-0.7500000000000001,-1.2103072956898178,0.7500000000000001,0.6822025149253125,1.9284675088329348,-0.9758319448497701,-0.67,5.0,4.33,9.33,1.45,4.33,5.0,0.35,1.1,1,76.67,100.0,95.0,100.0,-0.35787333951979305,0.8208232180559283,-2.4475295510870585,-2.6190470870327784,-0.896106338313104,0.37068178295328935,0.8543047284543455,-1.1363330171877684,0.6357563366353798,0.6357563366353798,0.35787333951979305,-0.8987354930330009,-2.5944628383782806,0.8526028917838565,0.3797188375659859,-0.5398894955464907,1.3830451008503275,0.989146291547098,1.3830451008503282,1,0,1
16,1,107,17,60_caramel_rice_crisps.png,1.4,20_crunch.png,1.1,1,3523,64,3762,2.0,465,1266,1731,3,2,-0.2999999999999998,-0.4841229182759267,0.2999999999999998,-0.5708225124885281,-0.6145665687489574,0.22149563504196856,-2.25,3.08,0.83,3.91,2.5,0.83,3.08,1.1,1.4,1,86.67,81.67,81.67,81.67,-1.2018134536112453,-1.7272076192081898,-0.7841599532609069,-0.9016391611096468,-0.22612029097620664,-2.1397809896079347,-0.4801029827139756,0.3580227314427213,0.9842051931854408,0.9842051931854408,1.2018134536112453,-0.2204445548948893,-0.8987354930330013,-0.5025275322434782,-2.0905709979005085,0.2942816921750516,-1.2554163075020448,-0.1228039016857171,-1.2554163075020452,0,1,1
17,1,108,20,25_wonderful_almonds.png,1.25,53_eat_natural_almond_apricot.png,1.1,0,7082,74,3691,2.0,-334,3290,2956,6,1,-0.1499999999999999,-0.2420614591379633,0.1499999999999999,-0.9884975216264744,0.1333846305398344,2.4619209015165726,-0.25,4.58,4.33,8.91,2.35,4.58,4.33,1.25,1.1,0,76.67,86.67,76.67,91.67,-0.13353482817902726,0.6233743339874911,-1.0217841815217856,-0.5581575759250207,-0.896106338313104,0.5500005524219482,0.3886520375779001,2.599556354388456,-0.3167790889804409,0.3167790889804409,0.13353482817902726,-0.5595900239639451,-0.8987354930330013,0.556168111527877,0.3797188375659859,-0.5398894955464907,-0.5357050668167278,-0.5398894955464879,0.1840061738685895,1,1,0
18,1,111,60,110_bombay_mix.png,1.4,57_food_doctor_mild_korma_crisps.png,1.25,1,3239,54,3138,2.0,226,1050,1276,2,2,-0.1499999999999999,-0.2420614591379633,0.1499999999999999,-0.9884975216264744,-1.3625177680377492,0.042714860757397735,-3.5,3.58,0.08,3.66,2.65,0.08,3.58,1.25,1.4,1,71.67,76.67,66.67,86.67,-1.8694875945063811,-1.844736716867974,-0.5465357250000284,-0.5581575759250207,-0.22612029097620664,-2.6777372980139114,-0.13260097459722528,-0.38915514287252345,0.5950496945150455,0.5950496945150455,1.8694875945063811,-0.2204445548948893,-0.5595900239639454,-0.14962898431969315,-2.6199188197861862,-0.9569750894072618,-1.9751275481873625,-1.3740606832680298,-0.5357050668167279,0,0,1
19,1,118,19,18_galaxy_bar.png,1.1,117_yogurt_raisins.png,1.25,0,2353,50,2173,2.0,-290,1082,792,2,1,0.1499999999999999,0.2420614591379633,0.1499999999999999,-0.9884975216264744,-1.6616982477532658,-0.5150307942289747,-1.67,4.75,3.08,7.83,2.35,4.75,3.08,1.1,1.25,1,86.67,100.0,81.67,86.67,-0.892012652235902,0.11564863209722395,-1.0217841815217856,-0.9016391611096468,-0.5611133146446553,0.6719373156606362,-0.4801029827139756,-0.38915514287252345,-0.2451353988486527,0.2451353988486527,0.892012652235902,-0.8987354930330009,-0.5595900239639454,0.6761536178219639,-0.5025275322434765,0.2942816921750516,1.3830451008503275,-0.1228039016857171,-0.5357050668167279,0,0,0
20,1,125,57,48_mentos_mint.png,0.95,40_nestle_rolo.png,1.1,1,519,88,3180,1.0,-201,201,0,0,1,0.15000000000000013,0.2420614591379637,0.15000000000000013,-0.9884975216264741,1.1805163095441429,-1.6695517098553934,0.5,3.58,4.08,7.66,2.05,4.08,3.58,1.1,0.95,1,81.67,86.67,76.67,81.67,0.2670696563580545,0.035728845688570834,-1.4970326380435437,-0.9016391611096468,-1.2310993619815531,0.19136301348463047,-0.13260097459722528,-1.8835108915030128,-0.10021975290026286,0.10021975290026286,0.2670696563580545,-1.2378809621020572,-0.8987354930330013,-0.14962898431969315,0.2032695636040934,-0.12280390168571954,-0.5357050668167278,-0.5398894955464879,-1.2554163075020452,1,0,0
21,1,126,19,18_galaxy_bar.png,1.1,117_yogurt_raisins.png,1.25,1,5492,64,2395,1.0,385,2198,2583,5,2,0.1499999999999999,0.2420614591379633,0.1499999999999999,-0.9884975216264744,-0.6145665687489574,1.4610003694304192,-1.67,4.75,3.08,7.83,2.35,3.08,4.75,1.25,1.1,1,86.67,100.0,81.67,86.67,-0.892012652235902,0.11564863209722395,-1.0217841815217856,-0.5581575759250207,-0.896106338313104,-0.5259120643900049,0.6805537243959703,1.8523784800732108,0.8539439384003713,0.8539439384003713,0.892012652235902,-0.8987354930330009,-0.5595900239639454,0.6761536178219639,-0.5025275322434765,0.2942816921750516,1.3830451008503275,-0.1228039016857171,-0.5357050668167279,0,1,1
22,1,128,17,60_caramel_rice_crisps.png,1.4,20_crunch.png,1.1,0,2185,68,2332,1.0,-327,1051,724,2,1,-0.2999999999999998,-0.4841229182759267,0.2999999999999998,-0.5708225124885281,-0.3153860890334407,-0.6207884353550588,-2.25,3.08,0.83,3.91,2.5,3.08,0.83,1.4,1.1,1,86.67,81.67,81.67,81.67,-1.2018134536112453,-1.7272076192081898,-0.7841599532609069,-0.2146759907403945,-0.896106338313104,-0.5259120643900049,-2.043862019239352,-0.38915514287252345,-0.3053812291867473,0.3053812291867473,1.2018134536112453,-0.2204445548948893,-0.8987354930330013,-0.5025275322434782,-2.0905709979005085,0.2942816921750516,-1.2554163075020448,-0.1228039016857171,-1.2554163075020452,0,1,0
23,1,136,18,29_mms_peanut.png,1.1,55_bassetts_licorice_allsorts.png,0.35,0,1939,92,1377,1.0,-324,932,608,2,1,-0.7500000000000001,-1.2103072956898178,0.7500000000000001,0.6822025149253125,1.4796967892596598,-0.7756478384325391,-0.67,5.0,4.33,9.33,1.45,5.0,4.33,1.1,0.35,1,76.67,100.0,95.0,100.0,-0.35787333951979305,0.8208232180559283,-2.4475295510870585,-0.9016391611096468,-2.5710714566553485,0.851256085129295,0.3886520375779001,-0.38915514287252345,-0.3004964321323072,0.3004964321323072,0.35787333951979305,-0.8987354930330009,-2.5944628383782806,0.8526028917838565,0.3797188375659859,-0.5398894955464907,1.3830451008503275,0.989146291547098,1.3830451008503282,1,0,0
24,1,143,20,25_wonderful_almonds.png,1.25,53_eat_natural_almond_apricot.png,1.1,1,1764,90,1256,1.0,516,444,960,1,2,-0.1499999999999999,-0.2420614591379633,0.1499999999999999,-0.9884975216264744,1.3301065494019009,-0.8858120479388768,-0.25,4.58,4.33,8.91,2.35,4.33,4.58,1.1,1.25,0,76.67,86.67,76.67,91.67,-0.13353482817902726,0.6233743339874911,-1.0217841815217856,-0.9016391611096468,-0.5611133146446553,0.37068178295328935,0.5624030416362753,-1.1363330171877684,1.0672467431109225,1.0672467431109225,0.13353482817902726,-0.5595900239639451,-0.8987354930330013,0.556168111527877,0.3797188375659859,-0.5398894955464907,-0.5357050668167278,-0.5398894955464879,0.1840061738685895,1,0,1
25,1,149,60,110_bombay_mix.png,1.4,57_food_doctor_mild_korma_crisps.png,1.25,0,5198,54,1864,1.0,-1619,3091,1472,5,1,-0.1499999999999999,-0.2420614591379633,0.1499999999999999,-0.9884975216264744,-1.3625177680377492,1.2759244974597719,-3.5,3.58,0.08,3.66,2.65,3.58,0.08,1.4,1.25,1,71.67,76.67,66.67,86.67,-1.8694875945063811,-1.844736716867974,-0.5465357250000284,-0.2146759907403945,-0.5611133146446553,-0.16727452545268726,-2.5651150314144773,1.8523784800732108,-2.4091004939656195,2.4091004939656195,1.8694875945063811,-0.2204445548948893,-0.5595900239639454,-0.14962898431969315,-2.6199188197861862,-0.9569750894072618,-1.9751275481873625,-1.3740606832680298,-0.5357050668167279,0,1,0
26,1,161,18,55_bassetts_licorice_allsorts.png,0.35,29_mms_peanut.png,1.1,0,1573,96,1570,2.0,-537,859,322,2,1,0.7500000000000001,1.2103072956898178,0.7500000000000001,0.6822025149253125,1.7788772689751764,-1.0060484137429369,0.67,4.33,5.0,9.33,1.45,4.33,5.0,0.35,1.1,1,95.0,100.0,76.67,100.0,0.35787333951979305,0.8208232180559283,-2.4475295510870585,-2.6190470870327784,-0.896106338313104,0.37068178295328935,0.8543047284543455,-0.38915514287252345,-0.6473170229975547,0.6473170229975547,0.35787333951979305,-2.594462838378281,-0.8987354930330013,0.3797188375659845,0.8526028917838576,0.9891462915470962,1.3830451008503275,-0.5398894955464879,1.3830451008503282,1,0,0
27,1,166,20,53_eat_natural_almond_apricot.png,1.1,25_wonderful_almonds.png,1.25,1,3429,64,3669,2.0,273,1314,1587,3,2,0.1499999999999999,0.2420614591379633,0.1499999999999999,-0.9884975216264744,-0.6145665687489574,0.16232171679285004,0.25,4.33,4.58,8.91,2.35,4.58,4.33,1.25,1.1,0,76.67,91.67,76.67,86.67,0.13353482817902726,0.6233743339874911,-1.0217841815217856,-0.5581575759250207,-0.896106338313104,0.5500005524219482,0.3886520375779001,0.3580227314427213,0.6715781817012739,0.6715781817012739,0.13353482817902726,-0.8987354930330009,-0.5595900239639454,0.3797188375659845,0.5561681115278784,-0.5398894955464907,0.18400617386858945,-0.5398894955464879,-0.5357050668167279,0,1,1
28,1,170,37,115_shapers_blueberry.png,1.1,13_fruit_pastilles.png,1.1,0,2497,76,1610,2.0,6,1006,1012,2,1,0.0,1.0451085762029443e-17,0.0,-1.4061725307644208,0.2829748703975928,-0.4243813875494739,3.0,1.33,4.33,5.66,2.2,1.33,4.33,1.1,1.1,1,81.67,81.67,86.67,86.67,1.6024179381483268,-0.9045039355897015,-1.2594084097826643,-0.9016391611096468,-0.896106338313104,-1.781143450670617,0.3886520375779001,-0.38915514287252345,0.2368312438561045,0.2368312438561045,1.6024179381483268,-0.8987354930330009,-0.8987354930330013,-1.7376724499767262,0.3797188375659859,-0.12280390168571954,-1.2554163075020448,0.2942816921750538,-0.5357050668167279,1,0,1
29,1,179,39,39_milkyway.png,1.25,50_nakd_rhubarb_and_custard.png,0.65,1,1569,90,1861,2.0,-274,730,456,1,2,-0.6,-0.968245836551854,0.6,0.26452750578736545,1.3301065494019009,-1.0085664528173672,-4.08,4.08,0.0,4.08,1.9,0.0,4.08,0.65,1.25,1,76.67,81.67,91.67,100.0,-2.1792883958817244,-1.6472878327995368,-1.7346568663044222,-1.932083916663526,-0.5611133146446553,-2.7351193042438817,0.214901033519525,-1.1363330171877684,-0.2190831478916388,0.2190831478916388,2.1792883958817244,-0.5595900239639451,-1.9161719002401691,0.20326956360409196,-2.676382587453992,-0.5398894955464907,-1.2554163075020448,0.7113672860358247,1.3830451008503282,1,0,0
30,1,182,40,27_mars.png,0.95,2_maynards_winegums.png,1.1,0,2747,76,1848,2.0,-514,1408,894,2,1,0.15000000000000013,0.2420614591379637,0.15000000000000013,-0.9884975216264741,0.2829748703975928,-0.267003945397563,-0.5,4.58,4.08,8.66,2.05,4.58,4.08,0.95,1.1,1,96.67,86.67,91.67,91.67,-0.2670696563580545,0.5058452363277071,-1.4970326380435437,-1.2451207462942735,-0.896106338313104,0.5500005524219482,0.214901033519525,-0.38915514287252345,-0.6098669122468472,0.6098669122468472,0.2670696563580545,-1.2378809621020572,-0.8987354930330013,0.556168111527877,0.2032695636040934,1.1284528798965938,-0.5357050668167278,0.7113672860358247,0.1840061738685895,1,0,0
31,1,186,38,38_milkybar.png,0.8,56_marshmallows.png,0.95,0,3938,50,1407,2.0,482,1557,2039,5,1,0.1499999999999999,0.2420614591379633,0.1499999999999999,-0.9884975216264744,-1.6616982477532658,0.4827421890141407,-0.5,4.33,3.83,8.16,1.75,4.33,3.83,0.8,0.95,1,86.67,96.67,76.67,91.67,-0.2670696563580545,0.2707870410081389,-1.9722810945653009,-1.5886023314788995,-1.2310993619815531,0.37068178295328935,0.04115002946114985,1.8523784800732108,1.011885709827268,1.011885709827268,0.2670696563580545,-1.5770264311711129,-1.2378809621020574,0.3797188375659845,0.026820289642200942,0.2942816921750516,0.9037174145539066,-0.5398894955464879,0.1840061738685895,0,1,1
32,1,187,16,104_graze_sriracha.png,0.65,116_boots_caramels.png,0.95,0,2329,52,3320,2.0,194,869,1063,1,1,0.29999999999999993,0.4841229182759269,0.29999999999999993,-0.5708225124885278,-1.5121080078955076,-0.5301390286755581,0.75,0.33,1.08,1.41,1.6,0.33,1.08,0.65,0.95,1,81.67,81.67,36.67,96.67,0.40060448453708175,-2.9024985958060308,-2.20990532282618,-1.932083916663526,-1.2310993619815531,-2.498418528545252,-1.8701110151809768,-1.1363330171877684,0.5429451926010177,0.5429451926010177,0.40060448453708175,-1.9161719002401687,-1.2378809621020574,-2.4434695458242963,-1.914121723938616,-0.12280390168571954,-1.2554163075020448,-3.876574246432656,0.903717414553907,0,0,1
33,1,195,19,117_yogurt_raisins.png,1.25,18_galaxy_bar.png,1.1,0,4843,70,1909,2.0,-462,2248,1786,3,2,-0.1499999999999999,-0.2420614591379633,0.1499999999999999,-0.9884975216264744,-0.16579584917568232,1.0524485296040582,1.67,3.08,4.75,7.83,2.35,3.08,4.75,1.25,1.1,0,81.67,86.67,86.67,100.0,0.892012652235902,0.11564863209722395,-1.0217841815217856,-0.5581575759250207,-0.896106338313104,-0.5259120643900049,0.6805537243959703,0.3580227314427213,-0.5251970966365521,0.5251970966365521,0.892012652235902,-0.5595900239639451,-0.8987354930330013,-0.5025275322434782,0.6761536178219651,-0.12280390168571954,-0.5357050668167278,0.2942816921750538,1.3830451008503282,0,1,0
34,1,197,17,20_crunch.png,1.1,60_caramel_rice_crisps.png,1.4,0,5630,62,2406,2.0,-92,2514,2422,5,2,0.2999999999999998,0.4841229182759267,0.2999999999999998,-0.5708225124885281,-0.7641568086067158,1.547872717498274,2.25,0.83,3.08,3.91,2.5,0.83,3.08,1.1,1.4,1,81.67,81.67,86.67,81.67,1.2018134536112453,-1.7272076192081898,-0.7841599532609069,-0.9016391611096468,-0.22612029097620664,-2.1397809896079347,-0.4801029827139756,1.8523784800732108,0.07726120674439432,0.07726120674439432,1.2018134536112453,-0.8987354930330009,-0.2204445548948897,-2.090570997900511,-0.5025275322434765,-0.12280390168571954,-1.2554163075020448,0.2942816921750538,-1.2554163075020452,0,1,0
35,1,204,20,53_eat_natural_almond_apricot.png,1.1,25_wonderful_almonds.png,1.25,0,1697,88,919,1.0,18,753,771,2,1,0.1499999999999999,0.2420614591379633,0.1499999999999999,-0.9884975216264744,1.1805163095441429,-0.9279892024355888,0.25,4.33,4.58,8.91,2.35,4.33,4.58,1.1,1.25,0,76.67,91.67,76.67,86.67,0.13353482817902726,0.6233743339874911,-1.0217841815217856,-0.9016391611096468,-0.5611133146446553,0.37068178295328935,0.5624030416362753,-0.38915514287252345,0.2563704320738649,0.2563704320738649,0.13353482817902726,-0.8987354930330009,-0.5595900239639454,0.3797188375659845,0.5561681115278784,-0.5398894955464907,0.18400617386858945,-0.5398894955464879,-0.5357050668167279,1,0,1
36,1,217,19,117_yogurt_raisins.png,1.25,18_galaxy_bar.png,1.1,1,4828,76,1901,1.0,-302,2030,1728,5,2,-0.1499999999999999,-0.2420614591379633,0.1499999999999999,-0.9884975216264744,0.2829748703975928,1.0430058830749436,1.67,3.08,4.75,7.83,2.35,4.75,3.08,1.1,1.25,0,81.67,86.67,86.67,100.0,0.892012652235902,0.11564863209722395,-1.0217841815217856,-0.9016391611096468,-0.5611133146446553,0.6719373156606362,-0.4801029827139756,1.8523784800732108,-0.2646745870664131,0.2646745870664131,0.892012652235902,-0.5595900239639451,-0.8987354930330013,-0.5025275322434782,0.6761536178219651,-0.12280390168571954,-0.5357050668167278,0.2942816921750538,1.3830451008503282,0,1,0
37,1,222,17,20_crunch.png,1.1,60_caramel_rice_crisps.png,1.4,1,1708,78,1915,1.0,235,640,875,2,2,0.2999999999999998,0.4841229182759267,0.2999999999999998,-0.5708225124885281,0.4325651102553511,-0.9210645949809048,2.25,0.83,3.08,3.91,2.5,3.08,0.83,1.4,1.1,1,81.67,81.67,86.67,81.67,1.2018134536112453,-1.7272076192081898,-0.7841599532609069,-0.2146759907403945,-0.896106338313104,-0.5259120643900049,-2.043862019239352,-0.38915514287252345,0.6097040856783659,0.6097040856783659,1.2018134536112453,-0.8987354930330009,-0.2204445548948897,-2.090570997900511,-0.5025275322434765,-0.12280390168571954,-1.2554163075020448,0.2942816921750538,-1.2554163075020452,1,0,1
38,1,224,18,55_bassetts_licorice_allsorts.png,0.35,29_mms_peanut.png,1.1,1,1466,82,2474,1.0,-83,604,521,1,2,0.7500000000000001,1.2103072956898178,0.7500000000000001,0.6822025149253125,0.7317455899708678,-1.0734059589839546,0.67,4.33,5.0,9.33,1.45,5.0,4.33,1.1,0.35,1,95.0,100.0,76.67,100.0,0.35787333951979305,0.8208232180559283,-2.4475295510870585,-0.9016391611096468,-2.5710714566553485,0.851256085129295,0.3886520375779001,-1.1363330171877684,0.09191559790771464,0.09191559790771464,0.35787333951979305,-2.594462838378281,-0.8987354930330013,0.3797188375659845,0.8526028917838576,0.9891462915470962,1.3830451008503275,-0.5398894955464879,1.3830451008503282,1,0,1
39,1,228,39,39_milkyway.png,1.25,50_nakd_rhubarb_and_custard.png,0.65,0,1556,100,1472,1.0,51,581,632,2,1,-0.6,-0.968245836551854,0.6,0.26452750578736545,2.0780577486906933,-1.0167500798092668,-4.08,4.08,0.0,4.08,1.9,4.08,0.0,1.25,0.65,1,76.67,81.67,91.67,100.0,-2.1792883958817244,-1.6472878327995368,-1.7346568663044222,-0.5581575759250207,-1.9010854093184508,0.19136301348463047,-2.6207153527131566,-0.38915514287252345,0.31010319967270605,0.31010319967270605,2.1792883958817244,-0.5595900239639451,-1.9161719002401691,0.20326956360409196,-2.676382587453992,-0.5398894955464907,-1.2554163075020448,0.7113672860358247,1.3830451008503282,1,0,1
40,1,232,16,104_graze_sriracha.png,0.65,116_boots_caramels.png,0.95,1,4190,64,1626,1.0,214,1716,1930,4,1,0.29999999999999993,0.4841229182759269,0.29999999999999993,-0.5708225124885278,-0.6145665687489574,0.6413786507032669,0.75,0.33,1.08,1.41,1.6,1.08,0.33,0.95,0.65,1,81.67,81.67,36.67,96.67,0.40060448453708175,-2.9024985958060308,-2.20990532282618,-1.2451207462942735,-1.9010854093184508,-1.960462220139276,-2.391364027356102,1.1052006057579662,0.5755105062972852,0.5755105062972852,0.40060448453708175,-1.9161719002401687,-1.2378809621020574,-2.4434695458242963,-1.914121723938616,-0.12280390168571954,-1.2554163075020448,-3.876574246432656,0.903717414553907,0,1,1
41,1,238,37,115_shapers_blueberry.png,1.1,13_fruit_pastilles.png,1.1,1,1819,74,2917,1.0,431,594,1025,2,2,0.0,1.0451085762029443e-17,0.0,-1.4061725307644208,0.1333846305398344,-0.8511890106654564,3.0,1.33,4.33,5.66,2.2,4.33,1.33,1.1,1.1,1,81.67,81.67,86.67,86.67,1.6024179381483268,-0.9045039355897015,-1.2594084097826643,-0.9016391611096468,-0.896106338313104,0.37068178295328935,-1.6963600111226014,-0.38915514287252345,0.9288441599017864,0.9288441599017864,1.6024179381483268,-0.8987354930330009,-0.8987354930330013,-1.7376724499767262,0.3797188375659859,-0.12280390168571954,-1.2554163075020448,0.2942816921750538,-0.5357050668167279,0,0,1
42,1,239,40,27_mars.png,0.95,2_maynards_winegums.png,1.1,1,1454,88,2149,1.0,-107,720,613,1,2,0.15000000000000013,0.2420614591379637,0.15000000000000013,-0.9884975216264741,1.1805163095441429,-1.0809600762072464,-0.5,4.58,4.08,8.66,2.05,4.08,4.58,1.1,0.95,1,96.67,86.67,91.67,91.67,-0.2670696563580545,0.5058452363277071,-1.4970326380435437,-0.9016391611096468,-1.2310993619815531,0.19136301348463047,0.5624030416362753,-1.1363330171877684,0.0528372214721938,0.0528372214721938,0.2670696563580545,-1.2378809621020572,-0.8987354930330013,0.556168111527877,0.2032695636040934,1.1284528798965938,-0.5357050668167278,0.7113672860358247,0.1840061738685895,1,0,1
43,1,240,38,38_milkybar.png,0.8,56_marshmallows.png,0.95,0,3480,70,1846,1.0,-951,1981,1030,2,1,0.1499999999999999,0.2420614591379633,0.1499999999999999,-0.9884975216264744,-0.16579584917568232,0.1944267149918399,-0.5,4.33,3.83,8.16,1.75,4.33,3.83,0.8,0.95,0,86.67,96.67,76.67,91.67,-0.2670696563580545,0.2707870410081389,-1.9722810945653009,-1.5886023314788995,-1.2310993619815531,0.37068178295328935,0.04115002946114985,-0.38915514287252345,-1.3214190165102893,1.3214190165102893,0.2670696563580545,-1.5770264311711129,-1.2378809621020574,0.3797188375659845,0.026820289642200942,0.2942816921750516,0.9037174145539066,-0.5398894955464879,0.1840061738685895,0,0,0
44,2,7,17,36_nature_valley_protein_bars.png,0.2,30_starburst_original.png,0.0,1,3471,100,919,2.0,457,1314,1771,1,1,-0.2,-0.5636623749260993,0.2,-0.4372656077790621,0.7815575761541609,1.0255217108697636,0.5,0.08,0.58,0.66,0.2,0.58,0.08,0.0,0.2,1,91.67,96.67,100.0,91.67,0.19348541743466569,-1.522932232712683,-1.5989170025404764,-1.618835416792304,-0.6328179044003867,-0.9781803093781049,-1.3068108483782508,-0.2716552241947502,0.949533824258172,0.949533824258172,0.19348541743466569,-0.7095670447678752,-1.5340779831323557,-1.274698659712701,-1.0086736096057058,0.3473300635277514,0.2646199426940877,0.8991868381502771,-0.16687785441072625,1,1,1
45,2,11,58,51_smarties.png,0.0,59_crunchie.png,0.2,0,3147,100,2704,2.0,-350,1374,1024,1,1,0.2,0.6361511060695887,0.2,-0.4372656077790621,0.7815575761541609,0.7670446472485278,0.75,0.08,0.83,0.91,0.2,0.08,0.83,0.0,0.2,1,100.0,100.0,71.67,86.67,0.2811411486796063,-1.4454582332190582,-1.5989170025404764,-1.618835416792304,-0.6328179044003867,-1.2102745004317328,-0.9576503254254314,-0.2716552241947502,-0.4019488736431836,0.4019488736431836,0.2811411486796063,-1.5599844766994098,-0.6693011987477047,-1.274698659712701,-0.8930663191064849,0.901271543192898,0.5724169681217594,-1.1046187611808616,-0.6189886287834152,1,0,0
46,2,12,57,48_mentos_mint.png,0.0,116_boots_caramels.png,0.2,0,3923,100,1808,2.0,1486,972,2458,1,1,0.2,0.6361511060695887,0.2,-0.4372656077790621,0.7815575761541609,1.3861131699956852,-2.92,5.0,2.08,7.08,0.2,5.0,2.08,0.0,0.2,1,100.0,100.0,100.0,100.0,-1.0056449859961225,0.466600074283604,-1.5989170025404764,-1.618835416792304,-0.6328179044003867,1.0735323395359675,-0.3757161205040657,-0.2716552241947502,2.6727998665636186,2.6727998665636186,1.0056449859961225,-1.5599844766994098,-0.6693011987477047,1.0199688058920118,-0.31502986661037913,0.901271543192898,0.5724169681217594,0.8991868381502771,0.5863386956941734,1,1,1
47,2,14,59,40_nestle_rolo.png,0.0,54_milkyway_magic_stars.png,0.2,0,4426,22,2586,2.0,-1632,2723,1091,1,1,0.2,0.6361511060695887,0.2,-0.4372656077790621,-1.6232349658586425,1.7873908335805049,-0.25,4.33,4.08,8.41,0.2,4.33,4.08,0.0,0.2,1,86.67,81.67,96.67,91.67,-0.06948177630015627,0.8787617515896884,-1.5989170025404764,-1.618835416792304,-0.6328179044003867,0.7625261235241061,0.5553786073701195,-0.2716552241947502,-2.548913952589328,2.548913952589328,0.06948177630015627,-1.5599844766994098,-0.6693011987477047,0.7074836022425895,0.6098284573833903,0.014832176573881868,-1.1218531448179472,0.6636530349108599,-0.16687785441072625,0,1,0
48,2,16,36,56_marshmallows.png,0.2,29_mms_peanut.png,0.2,1,4915,10,2056,2.0,-1703,2950,1247,2,2,0.0,0.03624436557174476,0.0,-1.536152999056288,-1.9932030492452275,2.177499735157,2.92,2.08,5.0,7.08,0.4,5.0,2.08,0.2,0.2,1,100.0,91.67,96.67,100.0,1.041992895885691,0.466600074283604,-0.9859136788827856,-0.7491756517555886,-0.6328179044003867,1.0735323395359675,-0.3757161205040657,1.490432716527955,-2.667817634808654,2.667817634808654,1.041992895885691,-0.7095670447678752,-0.6693011987477047,-0.3419070070278585,1.0352632864205242,0.901271543192898,-0.19753775314325725,0.6636530349108599,0.5863386956941734,0,1,0
49,2,19,19,109_kp_roast.png,0.35,34_hobnob_flapjack.png,0.2,1,6208,82,1899,2.0,1892,1850,3742,2,2,-0.14999999999999994,-0.4136856898016381,0.14999999999999994,-0.7119874555983687,0.2266054510742832,3.2090146834973017,-4.25,4.58,0.33,4.91,0.55,0.33,4.58,0.2,0.35,1,91.67,96.67,46.67,96.67,-1.4719734762192065,-0.20587424132106005,-0.5261611861395171,-0.7491756517555886,0.002647773658578259,-1.0942274049049188,0.7881522893386658,1.490432716527955,3.352727964888216,3.352727964888216,1.4719734762192065,-0.07175397081922431,-0.6693011987477047,0.8240825588281949,-1.1242809001049274,0.3473300635277514,0.2646199426940877,-2.872890557272583,0.2852329199619627,0,1,1
50,2,20,56,112_lindt_extra_creamy.png,0.2,2_maynards_winegums.png,0.0,1,2323,100,1128,2.0,762,598,1360,2,2,-0.2,-0.5636623749260993,0.2,-0.4372656077790621,0.7815575761541609,0.10968322618711328,-5.0,5.0,0.0,5.0,0.2,0.0,5.0,0.0,0.2,1,100.0,100.0,100.0,100.0,-1.7349406699540284,-0.17798360150335515,-1.5989170025404764,-1.618835416792304,-0.6328179044003867,-1.2474095710003137,0.9836821821922448,1.490432716527955,1.4603172478764046,1.4603172478764046,1.7349406699540284,-0.7095670447678752,-1.5340779831323557,1.0199688058920118,-1.2768825235638994,0.901271543192898,0.5724169681217594,0.8991868381502771,0.5863386956941734,1,1,1
51,2,21,54,47_daim.png,0.35,63_kitkat.png,0.2,0,3491,8,1690,2.0,-1131,1970,839,1,1,-0.14999999999999994,-0.4136856898016381,0.14999999999999994,-0.7119874555983687,-2.054864396476325,1.0414770851673707,3.92,1.08,5.0,6.08,0.55,1.08,5.0,0.35,0.2,0,86.67,91.67,91.67,100.0,1.3926158208654535,0.15670407630910438,-0.5261611861395171,-0.0969308279780522,-0.6328179044003867,-0.7460861183244767,0.9836821821922448,-0.2716552241947502,-1.7098893780557718,1.7098893780557718,1.3926158208654535,-0.07175397081922431,-0.6693011987477047,-0.8083028333702797,1.0352632864205242,0.014832176573881868,-0.19753775314325725,0.3099986756925157,0.5863386956941734,0,0,0
52,2,24,20,43_mccoys_steak_crisps.png,0.35,26_yorkie.png,0.35,1,4541,100,1475,2.0,-1079,2160,1081,1,2,0.0,0.03624436557174476,0.0,-1.536152999056288,0.7815575761541609,1.8791342357917455,-3.5,3.83,0.33,4.16,0.7,0.33,3.83,0.35,0.35,1,96.67,81.67,66.67,96.67,-1.2090062824843848,-0.4382962398019347,-0.06640869339624902,-0.0969308279780522,0.002647773658578259,-1.0942274049049188,0.4389917663858464,-0.2716552241947502,-1.6228049910782374,1.6228049910782374,1.2090062824843848,-0.07175397081922431,-0.020718610459216674,0.4742856890713789,-1.1242809001049274,0.6798279504816209,-1.1218531448179472,-1.458273120399206,0.2852329199619627,1,1,0
53,2,33,60,63_kitkat.png,0.2,27_mars.png,0.05,1,2267,70,1788,2.0,-326,1100,774,2,2,-0.15000000000000002,-0.4136856898016383,0.15000000000000002,-0.7119874555983684,-0.1433626323123019,0.06500817815381328,0.0,5.0,5.0,10.0,0.25,5.0,5.0,0.05,0.2,1,91.67,100.0,100.0,100.0,0.018173954944784368,1.371496388369143,-1.4456661716260542,-1.4014204755331252,-0.6328179044003867,1.0735323395359675,0.9836821821922448,1.490432716527955,-0.36175607965355216,0.36175607965355216,0.018173954944784368,-0.7095670447678752,-1.3178837870361928,1.0199688058920118,1.0352632864205242,0.3473300635277514,0.5724169681217594,0.8991868381502771,0.5863386956941734,0,1,0
54,2,34,30,54_milkyway_magic_stars.png,0.2,102_propercorn_worcester.png,0.35,0,3808,100,1020,2.0,1825,764,2589,1,1,0.14999999999999994,0.4861744209451276,0.14999999999999994,-0.7119874555983687,0.7815575761541609,1.2943697677844441,0.5,4.08,4.58,8.66,0.55,4.08,4.58,0.2,0.35,1,96.67,91.67,91.67,51.67,0.19348541743466569,0.9562357510833132,-0.5261611861395171,-0.7491756517555886,0.002647773658578259,0.6464790279972921,0.7881522893386658,-0.2716552241947502,3.240523081667162,3.240523081667162,0.19348541743466569,-0.7095670447678752,-0.020718610459216674,0.5908846456569842,0.8410430383818327,0.6798279504816209,-0.19753775314325725,0.3099986756925157,-3.7837640493922384,1,1,1
55,2,37,18,14_maltesers.png,0.05,24_twix.png,0.35,1,3486,38,1703,2.0,718,1094,1812,2,2,0.3,0.9361044763185106,0.3,0.11217808785955093,-1.1299441880098622,1.0374882415929692,0.0,5.0,5.0,10.0,0.4,5.0,5.0,0.35,0.05,0,96.67,100.0,96.67,100.0,0.018173954944784368,1.371496388369143,-0.9859136788827856,-0.0969308279780522,-1.268283582459352,1.0735323395359675,0.9836821821922448,1.490432716527955,1.3866304588954137,1.3866304588954137,0.018173954944784368,-1.3473801187165264,-0.020718610459216674,1.0199688058920118,1.0352632864205242,0.6798279504816209,0.5724169681217594,0.6636530349108599,0.5863386956941734,0,1,1
56,2,48,57,116_boots_caramels.png,0.2,48_mentos_mint.png,0.0,0,1404,86,2150,1.0,251,495,746,1,1,-0.2,-0.5636623749260993,0.2,-0.4372656077790621,0.3499281455364783,-0.6234662227879352,2.92,2.08,5.0,7.08,0.2,2.08,5.0,0.2,0.0,1,100.0,100.0,100.0,100.0,1.041992895885691,0.466600074283604,-1.5989170025404764,-0.7491756517555886,-1.4801054751456737,-0.2818977362172204,0.9836821821922448,-0.2716552241947502,0.6045456758471693,0.6045456758471693,1.041992895885691,-0.7095670447678752,-1.5340779831323557,-0.3419070070278585,1.0352632864205242,0.901271543192898,0.5724169681217594,0.8991868381502771,0.5863386956941734,0,1,1
57,2,49,37,32_snickers.png,0.05,62_cadbury_wispa.png,0.2,1,3249,14,1457,1.0,165,1154,1319,1,2,0.15000000000000002,0.4861744209451278,0.15000000000000002,-0.7119874555983684,-1.8698803547830325,0.8484170561663242,-4.42,5.0,0.58,5.58,0.25,0.58,5.0,0.2,0.05,1,100.0,100.0,61.67,91.67,-1.531579373465766,0.001756077321854616,-1.4456661716260542,-0.7491756517555886,-1.268283582459352,-0.9781803093781049,0.9836821821922448,-0.2716552241947502,0.4605214973843235,0.4605214973843235,1.531579373465766,-1.3473801187165264,-0.6693011987477047,1.0199688058920118,-1.0086736096057058,0.901271543192898,0.5724169681217594,-1.8119274796175504,-0.16687785441072625,0,1,1
58,2,50,16,50_nakd_rhubarb_and_custard.png,0.35,41_jelly_babies_berry_mix.png,0.0,0,1822,100,2040,1.0,504,536,1040,1,1,-0.35,-1.013592430299482,0.35,0.3868999356788573,0.7815575761541609,-0.28999889996794576,-0.08,0.08,0.0,0.08,0.35,0.08,0.0,0.35,0.0,1,46.67,100.0,100.0,100.0,-0.009875879053596642,-1.7026719115378928,-1.1391645097972083,-0.0969308279780522,-1.4801054751456737,-1.2102745004317328,-1.3440546374932183,-0.2716552241947502,1.0282447124878669,1.0282447124878669,0.009875879053596642,-0.07175397081922431,-1.5340779831323557,-1.274698659712701,-1.2768825235638994,-2.6451509190570746,0.5724169681217594,0.8991868381502771,0.5863386956941734,1,1,1
59,2,51,58,59_crunchie.png,0.2,51_smarties.png,0.0,0,1994,100,2069,1.0,-306,881,575,1,1,-0.2,-0.5636623749260993,0.2,-0.4372656077790621,0.7815575761541609,-0.1527826810085243,-0.75,0.83,0.08,0.91,0.2,0.83,0.08,0.2,0.0,1,71.67,86.67,100.0,100.0,-0.2447932387900376,-1.4454582332190582,-1.5989170025404764,-0.7491756517555886,-1.4801054751456737,-0.8621332138512907,-1.3068108483782508,-0.2716552241947502,-0.3282620846621927,0.3282620846621927,0.2447932387900376,-0.7095670447678752,-1.5340779831323557,-0.9249017899558852,-1.2398881906041486,-0.9826614842877268,-0.6596954489806022,0.8991868381502771,0.5863386956941734,1,1,0
60,2,58,39,52_discos_salt_vinegar.png,0.35,55_bassetts_licorice_allsorts.png,0.2,0,2415,100,1937,1.0,24,916,940,1,1,-0.14999999999999994,-0.4136856898016381,0.14999999999999994,-0.7119874555983687,0.7815575761541609,0.18307794795610616,-0.33,0.33,0.0,0.33,0.55,0.33,0.0,0.35,0.2,1,61.67,96.67,61.67,100.0,-0.0975316102985373,-1.625197912044268,-0.5261611861395171,-0.0969308279780522,-0.6328179044003867,-1.0942274049049188,-1.3440546374932183,-0.2716552241947502,0.22438883269523907,0.22438883269523907,0.0975316102985373,-0.07175397081922431,-0.6693011987477047,-1.158099703127096,-1.2768825235638994,-1.6476572581954658,0.2646199426940877,-1.8119274796175504,0.5863386956941734,1,1,1
61,2,59,36,29_mms_peanut.png,0.2,56_marshmallows.png,0.2,1,3498,52,1064,1.0,-439,563,124,1,1,0.0,0.03624436557174476,0.0,-1.536152999056288,-0.6983147573921796,1.0470614661715332,-2.92,5.0,2.08,7.08,0.4,2.08,5.0,0.2,0.2,1,96.67,100.0,100.0,91.67,-1.0056449859961225,0.466600074283604,-0.9859136788827856,-0.7491756517555886,-0.6328179044003867,-0.2818977362172204,0.9836821821922448,-0.2716552241947502,-0.5509971513547334,0.5509971513547334,1.0056449859961225,-0.7095670447678752,-0.6693011987477047,1.0199688058920118,-0.31502986661037913,0.6798279504816209,0.5724169681217594,0.8991868381502771,-0.16687785441072625,0,1,0
62,2,60,40,13_fruit_pastilles.png,0.0,35_mms_plain.png,0.2,1,2270,84,975,1.0,-299,1022,723,1,1,0.2,0.6361511060695887,0.2,-0.4372656077790621,0.2882667983053807,0.06740148429845434,4.92,0.08,5.0,5.08,0.2,5.0,0.08,0.2,0.0,1,100.0,100.0,91.67,100.0,1.7432387458452163,-0.15319192166539514,-1.5989170025404764,-0.7491756517555886,-1.4801054751456737,1.0735323395359675,-1.3068108483782508,-0.2716552241947502,-0.31653918641521683,0.31653918641521683,1.7432387458452163,-1.5599844766994098,-0.6693011987477047,-1.274698659712701,1.0352632864205242,0.901271543192898,0.5724169681217594,0.3099986756925157,0.5863386956941734,0,1,0
63,2,64,60,27_mars.png,0.05,63_kitkat.png,0.2,1,3086,20,1191,1.0,-628,1173,545,1,1,0.15000000000000002,0.4861744209451278,0.15000000000000002,-0.7119874555983684,-1.68489631308974,0.7183807556408259,0.0,5.0,5.0,10.0,0.25,5.0,5.0,0.2,0.05,1,100.0,100.0,91.67,100.0,0.018173954944784368,1.371496388369143,-1.4456661716260542,-0.7491756517555886,-1.268283582459352,1.0735323395359675,0.9836821821922448,-0.2716552241947502,-0.8675154040230807,0.8675154040230807,0.018173954944784368,-1.3473801187165264,-0.6693011987477047,1.0199688058920118,1.0352632864205242,0.901271543192898,0.5724169681217594,0.3099986756925157,0.5863386956941734,0,1,0
64,2,66,38,18_galaxy_bar.png,0.05,42_dairy_milk_fruit_and_nut.png,0.2,1,2560,66,797,1.0,-665,1335,670,0,1,0.15000000000000002,0.4861744209451278,0.15000000000000002,-0.7119874555983684,-0.26668532677449697,0.298754411613758,0.0,5.0,5.0,10.0,0.25,5.0,5.0,0.2,0.05,1,96.67,100.0,100.0,100.0,0.018173954944784368,1.371496388369143,-1.4456661716260542,-0.7491756517555886,-1.268283582459352,1.0735323395359675,0.9836821821922448,-2.0337431649174555,-0.9294792947570958,0.9294792947570958,0.018173954944784368,-1.3473801187165264,-0.6693011987477047,1.0199688058920118,1.0352632864205242,0.6798279504816209,0.5724169681217594,0.8991868381502771,0.5863386956941734,0,0,0
65,2,75,14,48_mentos_mint.png,0.0,39_milkyway.png,0.35,1,2059,98,1708,1.0,-360,786,426,1,2,0.35,1.0860811614429715,0.35,0.3868999356788573,0.7198962289230634,-0.10092771454130108,0.0,5.0,5.0,10.0,0.35,5.0,5.0,0.35,0.0,1,100.0,100.0,96.67,100.0,0.018173954944784368,1.371496388369143,-1.1391645097972083,-0.0969308279780522,-1.4801054751456737,1.0735323395359675,0.9836821821922448,-0.2716552241947502,-0.4186958711388633,0.4186958711388633,0.018173954944784368,-1.5599844766994098,-0.020718610459216674,1.0199688058920118,1.0352632864205242,0.901271543192898,0.5724169681217594,0.6636530349108599,0.5863386956941734,1,1,0
66,2,78,59,54_milkyway_magic_stars.png,0.2,40_nestle_rolo.png,0.0,1,2535,56,1237,1.0,-1068,1400,332,0,1,-0.2,-0.5636623749260993,0.2,-0.4372656077790621,-0.5749920629299845,0.27881019374174904,0.25,4.08,4.33,8.41,0.2,4.33,4.08,0.0,0.2,0,96.67,91.67,86.67,81.67,0.105829686189725,0.8787617515896884,-1.5989170025404764,-1.618835416792304,-0.6328179044003867,0.7625261235241061,0.5553786073701195,-2.0337431649174555,-1.6043832938329896,1.6043832938329896,0.105829686189725,-0.7095670447678752,-1.5340779831323557,0.5908846456569842,0.7254357478826114,0.6798279504816209,-0.19753775314325725,-0.043655683525828666,-1.0710994031561039,0,0,0
67,2,83,38,18_galaxy_bar.png,0.05,42_dairy_milk_fruit_and_nut.png,0.2,0,2803,26,862,2.0,-639,1291,652,1,1,0.15000000000000002,0.4861744209451278,0.15000000000000002,-0.7119874555983684,-1.4999122713964474,0.4926122093296849,0.0,5.0,5.0,10.0,0.25,5.0,5.0,0.05,0.2,1,96.67,100.0,100.0,100.0,0.018173954944784368,1.371496388369143,-1.4456661716260542,-1.4014204755331252,-0.6328179044003867,1.0735323395359675,0.9836821821922448,-0.2716552241947502,-0.8859371012683285,0.8859371012683285,0.018173954944784368,-1.3473801187165264,-0.6693011987477047,1.0199688058920118,1.0352632864205242,0.6798279504816209,0.5724169681217594,0.8991868381502771,0.5863386956941734,0,1,0
68,2,84,14,48_mentos_mint.png,0.0,39_milkyway.png,0.35,0,1702,100,1582,2.0,-133,769,636,1,1,0.35,1.0860811614429715,0.35,0.3868999356788573,0.7815575761541609,-0.3857311457535887,0.0,5.0,5.0,10.0,0.35,5.0,5.0,0.0,0.35,1,100.0,100.0,96.67,100.0,0.018173954944784368,1.371496388369143,-1.1391645097972083,-1.618835416792304,0.002647773658578259,1.0735323395359675,0.9836821821922448,-0.2716552241947502,-0.03853902798693303,0.03853902798693303,0.018173954944784368,-1.5599844766994098,-0.020718610459216674,1.0199688058920118,1.0352632864205242,0.901271543192898,0.5724169681217594,0.6636530349108599,0.5863386956941734,1,1,0
69,2,85,36,29_mms_peanut.png,0.2,56_marshmallows.png,0.2,0,2152,40,1604,2.0,-562,1177,615,1,1,0.0,0.03624436557174476,0.0,-1.536152999056288,-1.0682828407787648,-0.02673522405742783,-2.92,5.0,2.08,7.08,0.4,5.0,2.08,0.2,0.2,1,96.67,100.0,100.0,91.67,-1.0056449859961225,0.466600074283604,-0.9859136788827856,-0.7491756517555886,-0.6328179044003867,1.0735323395359675,-0.3757161205040657,-0.2716552241947502,-0.7569852205515942,0.7569852205515942,1.0056449859961225,-0.7095670447678752,-0.6693011987477047,1.0199688058920118,-0.31502986661037913,0.6798279504816209,0.5724169681217594,0.8991868381502771,-0.16687785441072625,0,1,0
70,2,90,59,54_milkyway_magic_stars.png,0.2,40_nestle_rolo.png,0.0,0,1534,44,1116,2.0,48,578,626,1,1,-0.2,-0.5636623749260993,0.2,-0.4372656077790621,-0.9449601463165695,-0.5197562898534888,0.25,4.08,4.33,8.41,0.2,4.08,4.33,0.2,0.0,0,96.67,91.67,86.67,81.67,0.105829686189725,0.8787617515896884,-1.5989170025404764,-0.7491756517555886,-1.4801054751456737,0.6464790279972921,0.6717654483543927,-0.2716552241947502,0.26458162668487045,0.26458162668487045,0.105829686189725,-0.7095670447678752,-1.5340779831323557,0.5908846456569842,0.7254357478826114,0.6798279504816209,-0.19753775314325725,-0.043655683525828666,-1.0710994031561039,0,1,1
71,2,92,57,116_boots_caramels.png,0.2,48_mentos_mint.png,0.0,1,1343,100,2045,2.0,48,582,630,1,1,-0.2,-0.5636623749260993,0.2,-0.4372656077790621,0.7815575761541609,-0.6721301143956371,2.92,2.08,5.0,7.08,0.2,5.0,2.08,0.0,0.2,1,100.0,100.0,100.0,100.0,1.041992895885691,0.466600074283604,-1.5989170025404764,-1.618835416792304,-0.6328179044003867,1.0735323395359675,-0.3757161205040657,-0.2716552241947502,0.26458162668487045,0.26458162668487045,1.041992895885691,-0.7095670447678752,-1.5340779831323557,-0.3419070070278585,1.0352632864205242,0.901271543192898,0.5724169681217594,0.8991868381502771,0.5863386956941734,1,1,1
72,2,93,58,59_crunchie.png,0.2,51_smarties.png,0.0,1,1683,100,1362,2.0,-273,910,637,1,1,-0.2,-0.5636623749260993,0.2,-0.4372656077790621,0.7815575761541609,-0.40088875133631546,-0.75,0.83,0.08,0.91,0.2,0.08,0.83,0.0,0.2,1,71.67,86.67,100.0,100.0,-0.2447932387900376,-1.4454582332190582,-1.5989170025404764,-1.618835416792304,-0.6328179044003867,-1.2102745004317328,-0.9576503254254314,-0.2716552241947502,-0.2729969929264495,0.2729969929264495,0.2447932387900376,-0.7095670447678752,-1.5340779831323557,-0.9249017899558852,-1.2398881906041486,-0.9826614842877268,-0.6596954489806022,0.8991868381502771,0.5863386956941734,1,1,0
73,2,97,60,27_mars.png,0.05,63_kitkat.png,0.2,0,1858,88,1571,2.0,-241,527,286,1,1,0.15000000000000002,0.4861744209451278,0.15000000000000002,-0.7119874555983684,0.4115894927675758,-0.2612792262322529,0.0,5.0,5.0,10.0,0.25,5.0,5.0,0.05,0.2,1,100.0,100.0,91.67,100.0,0.018173954944784368,1.371496388369143,-1.4456661716260542,-1.4014204755331252,-0.6328179044003867,1.0735323395359675,0.9836821821922448,-0.2716552241947502,-0.2194066009402743,0.2194066009402743,0.018173954944784368,-1.3473801187165264,-0.6693011987477047,1.0199688058920118,1.0352632864205242,0.901271543192898,0.5724169681217594,0.3099986756925157,0.5863386956941734,0,0,0
74,2,103,40,13_fruit_pastilles.png,0.0,35_mms_plain.png,0.2,0,1414,98,1432,2.0,158,563,721,1,1,0.2,0.6361511060695887,0.2,-0.4372656077790621,0.7198962289230634,-0.6154885356391316,4.92,0.08,5.0,5.08,0.2,0.08,5.0,0.0,0.2,1,100.0,100.0,91.67,100.0,1.7432387458452163,-0.15319192166539514,-1.5989170025404764,-1.618835416792304,-0.6328179044003867,-1.2102745004317328,0.9836821821922448,-0.2716552241947502,0.4487985991373477,0.4487985991373477,1.7432387458452163,-1.5599844766994098,-0.6693011987477047,-1.274698659712701,1.0352632864205242,0.901271543192898,0.5724169681217594,0.3099986756925157,0.5863386956941734,1,0,1
75,2,110,39,52_discos_salt_vinegar.png,0.35,55_bassetts_licorice_allsorts.png,0.2,1,1035,100,741,2.0,243,332,575,1,1,-0.14999999999999994,-0.4136856898016381,0.14999999999999994,-0.7119874555983687,0.7815575761541609,-0.9178428785787872,-0.33,0.33,0.0,0.33,0.55,0.0,0.33,0.2,0.35,1,61.67,96.67,61.67,100.0,-0.0975316102985373,-1.625197912044268,-0.5261611861395171,-0.7491756517555886,0.002647773658578259,-1.2474095710003137,-1.1904240073939776,-0.2716552241947502,0.5911480778506256,0.5911480778506256,0.0975316102985373,-0.07175397081922431,-0.6693011987477047,-1.158099703127096,-1.2768825235638994,-1.6476572581954658,0.2646199426940877,-1.8119274796175504,0.5863386956941734,1,0,1
76,2,114,16,50_nakd_rhubarb_and_custard.png,0.35,41_jelly_babies_berry_mix.png,0.0,1,1122,100,840,2.0,192,400,592,1,1,-0.35,-1.013592430299482,0.35,0.3868999356788573,0.7815575761541609,-0.8484370003841959,-0.08,0.08,0.0,0.08,0.35,0.0,0.08,0.0,0.35,1,46.67,100.0,100.0,100.0,-0.009875879053596642,-1.7026719115378928,-1.1391645097972083,-1.618835416792304,0.002647773658578259,-1.2474095710003137,-1.3068108483782508,-0.2716552241947502,0.5057383906226589,0.5057383906226589,0.009875879053596642,-0.07175397081922431,-1.5340779831323557,-1.274698659712701,-1.2768825235638994,-2.6451509190570746,0.5724169681217594,0.8991868381502771,0.5863386956941734,1,0,1
77,2,115,37,32_snickers.png,0.05,62_cadbury_wispa.png,0.2,1,1763,20,1621,2.0,-517,989,472,1,1,0.15000000000000002,0.4861744209451278,0.15000000000000002,-0.7119874555983684,-1.68489631308974,-0.33706725414588684,-4.42,5.0,0.58,5.58,0.25,0.58,5.0,0.2,0.05,0,100.0,100.0,61.67,91.67,-1.531579373465766,0.001756077321854616,-1.4456661716260542,-0.7491756517555886,-1.268283582459352,-0.9781803093781049,0.9836821821922448,-0.2716552241947502,-0.6816237318210354,0.6816237318210354,1.531579373465766,-1.3473801187165264,-0.6693011987477047,1.0199688058920118,-1.0086736096057058,0.901271543192898,0.5724169681217594,-1.8119274796175504,-0.16687785441072625,0,0,0
78,2,122,17,30_starburst_original.png,0.0,36_nature_valley_protein_bars.png,0.2,1,1504,100,1309,1.0,-345,842,497,1,2,0.2,0.6361511060695887,0.2,-0.4372656077790621,0.7815575761541609,-0.5436893512998995,-0.5,0.58,0.08,0.66,0.2,0.08,0.58,0.2,0.0,1,100.0,91.67,91.67,96.67,-0.15713750754509692,-1.522932232712683,-1.5989170025404764,-0.7491756517555886,-1.4801054751456737,-1.2102745004317328,-1.0740371664097046,-0.2716552241947502,-0.3935753748953437,0.3935753748953437,0.15713750754509692,-1.5599844766994098,-0.6693011987477047,-1.0415007465414905,-1.2398881906041486,0.901271543192898,-0.19753775314325725,0.3099986756925157,0.2852329199619627,1,1,0
79,2,124,18,24_twix.png,0.35,14_maltesers.png,0.05,1,1998,42,832,1.0,-520,1132,612,2,2,-0.3,-0.8636157451750212,0.3,0.11217808785955093,-1.0066214935476672,-0.14959160614900288,0.0,5.0,5.0,10.0,0.4,5.0,5.0,0.05,0.35,0,96.67,100.0,96.67,100.0,0.018173954944784368,1.371496388369143,-0.9859136788827856,-1.4014204755331252,0.002647773658578259,1.0735323395359675,0.9836821821922448,1.490432716527955,-0.6866478310697394,0.6866478310697394,0.018173954944784368,-0.07175397081922431,-1.3178837870361928,1.0199688058920118,1.0352632864205242,0.6798279504816209,0.5724169681217594,0.6636530349108599,0.5863386956941734,0,1,0
80,2,131,30,102_propercorn_worcester.png,0.35,54_milkyway_magic_stars.png,0.2,0,1160,100,828,1.0,-185,608,423,1,1,-0.14999999999999994,-0.4136856898016381,0.14999999999999994,-0.7119874555983687,0.7815575761541609,-0.8181217892187423,-0.5,4.58,4.08,8.66,0.55,4.58,4.08,0.35,0.2,1,91.67,51.67,96.67,91.67,-0.15713750754509692,0.9562357510833132,-0.5261611861395171,-0.0969308279780522,-0.6328179044003867,0.8785732190509201,0.5553786073701195,-0.2716552241947502,-0.12562341496446772,0.12562341496446772,0.15713750754509692,-0.07175397081922431,-0.6693011987477047,0.8240825588281949,0.6098284573833903,0.3473300635277514,-3.8947993198420168,0.6636530349108599,-0.16687785441072625,1,1,1
81,2,132,54,63_kitkat.png,0.2,47_daim.png,0.35,0,1596,56,1974,1.0,-326,879,553,1,1,0.14999999999999994,0.4861744209451276,0.14999999999999994,-0.7119874555983687,-0.5749920629299845,-0.4702946295309066,-3.92,5.0,1.08,6.08,0.55,5.0,1.08,0.2,0.35,0,91.67,100.0,86.67,91.67,-1.356267910975885,0.15670407630910438,-0.5261611861395171,-0.7491756517555886,0.002647773658578259,1.0735323395359675,-0.8412634844411583,-0.2716552241947502,-0.36175607965355216,0.36175607965355216,1.356267910975885,-0.7095670447678752,-0.020718610459216674,1.0199688058920118,-0.7774590286072638,0.3473300635277514,0.5724169681217594,-0.043655683525828666,-0.16687785441072625,0,1,0
82,2,140,16,41_jelly_babies_berry_mix.png,0.0,50_nakd_rhubarb_and_custard.png,0.35,1,1150,100,1650,1.0,-147,584,437,1,1,0.35,1.0860811614429715,0.35,0.3868999356788573,0.7815575761541609,-0.8260994763675459,0.08,0.0,0.08,0.08,0.35,0.08,0.0,0.35,0.0,1,100.0,100.0,46.67,100.0,0.046223788943165374,-1.7026719115378928,-1.1391645097972083,-0.0969308279780522,-1.4801054751456737,-1.2102745004317328,-1.3440546374932183,-0.2716552241947502,-0.06198482448088467,0.06198482448088467,0.046223788943165374,-1.5599844766994098,-0.020718610459216674,-1.3120103258200948,-1.2398881906041486,0.901271543192898,0.5724169681217594,-2.872890557272583,0.5863386956941734,1,1,1
83,2,143,19,34_hobnob_flapjack.png,0.2,109_kp_roast.png,0.35,1,1184,94,1548,1.0,-27,543,516,1,1,0.14999999999999994,0.4861744209451276,0.14999999999999994,-0.7119874555983687,0.5965735344608684,-0.7989753400616139,4.25,0.33,4.58,4.91,0.55,4.58,0.33,0.35,0.2,1,46.67,96.67,91.67,96.67,1.5083213861087754,-0.20587424132106005,-0.5261611861395171,-0.0969308279780522,-0.6328179044003867,0.8785732190509201,-1.1904240073939776,-0.2716552241947502,0.13897914546727233,0.13897914546727233,1.5083213861087754,-0.7095670447678752,-0.020718610459216674,-1.158099703127096,0.8410430383818327,-2.6451509190570746,0.2646199426940877,0.3099986756925157,0.2852329199619627,1,0,1
84,2,146,40,35_mms_plain.png,0.2,13_fruit_pastilles.png,0.0,0,1025,82,1524,1.0,2,445,447,1,1,-0.2,-0.5636623749260993,0.2,-0.4372656077790621,0.2266054510742832,-0.9258205657275906,-4.92,5.0,0.08,5.08,0.2,5.0,0.08,0.2,0.0,1,91.67,100.0,100.0,100.0,-1.7068908359556474,-0.15319192166539514,-1.5989170025404764,-0.7491756517555886,-1.4801054751456737,1.0735323395359675,-1.3068108483782508,-0.2716552241947502,0.1875454382047436,0.1875454382047436,1.7068908359556474,-0.7095670447678752,-1.5340779831323557,1.0199688058920118,-1.2398881906041486,0.3473300635277514,0.5724169681217594,0.8991868381502771,0.5863386956941734,0,0,1
85,2,148,56,2_maynards_winegums.png,0.0,112_lindt_extra_creamy.png,0.2,1,1224,96,1372,1.0,-300,698,398,1,1,0.2,0.6361511060695887,0.2,-0.4372656077790621,0.6582348816919659,-0.7670645914663995,5.0,0.0,5.0,5.0,0.2,5.0,0.0,0.2,0.0,1,100.0,100.0,100.0,100.0,1.771288579843597,-0.17798360150335515,-1.5989170025404764,-0.7491756517555886,-1.4801054751456737,1.0735323395359675,-1.3440546374932183,-0.2716552241947502,-0.3182138861647848,0.3182138861647848,1.771288579843597,-1.5599844766994098,-0.6693011987477047,-1.3120103258200948,1.0352632864205242,0.901271543192898,0.5724169681217594,0.8991868381502771,0.5863386956941734,1,0,0
86,2,153,20,26_yorkie.png,0.35,43_mccoys_steak_crisps.png,0.35,1,1127,92,1061,1.0,-129,558,429,1,1,0.0,0.03624436557174476,0.0,-1.536152999056288,0.5349121872297709,-0.8444481568097941,3.5,0.33,3.83,4.16,0.7,3.83,0.33,0.35,0.35,1,66.67,96.67,96.67,81.67,1.2453541923739533,-0.4382962398019347,-0.06640869339624902,-0.0969308279780522,0.002647773658578259,0.5304319324704779,-1.1904240073939776,-0.2716552241947502,-0.03184022898866113,0.03184022898866113,1.2453541923739533,-0.07175397081922431,-0.020718610459216674,-1.158099703127096,0.4942211668841691,-1.3151593712415963,0.2646199426940877,0.6636530349108599,-1.0710994031561039,0,0,1
87,2,154,38,42_dairy_milk_fruit_and_nut.png,0.2,18_galaxy_bar.png,0.05,1,1540,6,1482,1.0,-541,958,417,1,1,-0.15000000000000002,-0.4136856898016383,0.15000000000000002,-0.7119874555983684,-2.1165257437074225,-0.5149696775642065,0.0,5.0,5.0,10.0,0.25,5.0,5.0,0.05,0.2,0,100.0,100.0,96.67,100.0,0.018173954944784368,1.371496388369143,-1.4456661716260542,-1.4014204755331252,-0.6328179044003867,1.0735323395359675,0.9836821821922448,-0.2716552241947502,-0.7218165258106668,0.7218165258106668,0.018173954944784368,-0.7095670447678752,-1.3178837870361928,1.0199688058920118,1.0352632864205242,0.901271543192898,0.5724169681217594,0.6636530349108599,0.5863386956941734,0,0,0
88,2,156,37,62_cadbury_wispa.png,0.2,32_snickers.png,0.05,0,1212,70,1487,1.0,-313,694,381,1,1,-0.15000000000000002,-0.4136856898016383,0.15000000000000002,-0.7119874555983684,-0.1433626323123019,-0.7766378160449638,4.42,0.58,5.0,5.58,0.25,0.58,5.0,0.2,0.05,1,61.67,91.67,100.0,100.0,1.567927283355335,0.001756077321854616,-1.4456661716260542,-0.7491756517555886,-1.268283582459352,-0.9781803093781049,0.9836821821922448,-0.2716552241947502,-0.3399849829091685,0.3399849829091685,1.567927283355335,-0.7095670447678752,-1.3178837870361928,-1.0415007465414905,1.0352632864205242,-1.6476572581954658,-0.19753775314325725,0.8991868381502771,0.5863386956941734,0,0,0
89,2,157,39,55_bassetts_licorice_allsorts.png,0.2,52_discos_salt_vinegar.png,0.35,1,1247,100,2272,1.0,-191,655,464,1,1,0.14999999999999994,0.4861744209451276,0.14999999999999994,-0.7119874555983687,0.7815575761541609,-0.7487159110241512,0.33,0.0,0.33,0.33,0.55,0.33,0.0,0.35,0.2,1,61.67,100.0,61.67,96.67,0.13387952018810606,-1.625197912044268,-0.5261611861395171,-0.0969308279780522,-0.6328179044003867,-1.0942274049049188,-1.3440546374932183,-0.2716552241947502,-0.1356716134618756,0.1356716134618756,0.13387952018810606,-0.7095670447678752,-0.020718610459216674,-1.3120103258200948,-1.1242809001049274,-1.6476572581954658,0.5724169681217594,-1.8119274796175504,0.2852329199619627,1,0,1
90,2,160,14,39_milkyway.png,0.35,48_mentos_mint.png,0.0,0,1068,100,1213,1.0,-191,576,385,1,1,-0.35,-1.013592430299482,0.35,0.3868999356788573,0.7815575761541609,-0.8915165109877353,0.0,5.0,5.0,10.0,0.35,5.0,5.0,0.35,0.0,1,96.67,100.0,100.0,100.0,0.018173954944784368,1.371496388369143,-1.1391645097972083,-0.0969308279780522,-1.4801054751456737,1.0735323395359675,0.9836821821922448,-0.2716552241947502,-0.1356716134618756,0.1356716134618756,0.018173954944784368,-0.07175397081922431,-1.5340779831323557,1.0199688058920118,1.0352632864205242,0.6798279504816209,0.5724169681217594,0.8991868381502771,0.5863386956941734,1,0,1
91,2,161,40,35_mms_plain.png,0.2,13_fruit_pastilles.png,0.0,1,1524,100,731,2.0,121,627,748,1,2,-0.2,-0.5636623749260993,0.2,-0.4372656077790621,0.7815575761541609,-0.5277339770022923,-4.92,5.0,0.08,5.08,0.2,0.08,5.0,0.0,0.2,1,91.67,100.0,100.0,100.0,-1.7068908359556474,-0.15319192166539514,-1.5989170025404764,-1.618835416792304,-0.6328179044003867,-1.2102745004317328,0.9836821821922448,-0.2716552241947502,0.3868347084033326,0.3868347084033326,1.7068908359556474,-0.7095670447678752,-1.5340779831323557,1.0199688058920118,-1.2398881906041486,0.3473300635277514,0.5724169681217594,0.8991868381502771,0.5863386956941734,1,0,1
92,2,163,38,42_dairy_milk_fruit_and_nut.png,0.2,18_galaxy_bar.png,0.05,1,1901,86,716,2.0,-97,906,809,1,2,-0.15000000000000002,-0.4136856898016383,0.15000000000000002,-0.7119874555983684,0.3499281455364783,-0.22697517149239754,0.0,5.0,5.0,10.0,0.25,5.0,5.0,0.05,0.2,1,100.0,100.0,96.67,100.0,0.018173954944784368,1.371496388369143,-1.4456661716260542,-1.4014204755331252,-0.6328179044003867,1.0735323395359675,0.9836821821922448,-0.2716552241947502,0.021750162997514068,0.021750162997514068,0.018173954944784368,-0.7095670447678752,-1.3178837870361928,1.0199688058920118,1.0352632864205242,0.901271543192898,0.5724169681217594,0.6636530349108599,0.5863386956941734,0,0,0
93,2,165,14,39_milkyway.png,0.35,48_mentos_mint.png,0.0,1,1977,100,1668,2.0,80,524,604,2,2,-0.35,-1.013592430299482,0.35,0.3868999356788573,0.7815575761541609,-0.1663447491614904,0.0,5.0,5.0,10.0,0.35,5.0,5.0,0.0,0.35,1,96.67,100.0,100.0,100.0,0.018173954944784368,1.371496388369143,-1.1391645097972083,-1.618835416792304,0.002647773658578259,1.0735323395359675,0.9836821821922448,1.490432716527955,0.3181720186710457,0.3181720186710457,0.018173954944784368,-0.07175397081922431,-1.5340779831323557,1.0199688058920118,1.0352632864205242,0.6798279504816209,0.5724169681217594,0.8991868381502771,0.5863386956941734,1,1,1
94,2,167,30,102_propercorn_worcester.png,0.35,54_milkyway_magic_stars.png,0.2,1,4034,100,1084,2.0,-87,593,506,1,1,-0.14999999999999994,-0.4136856898016381,0.14999999999999994,-0.7119874555983687,0.7815575761541609,1.4746654973474047,-0.5,4.58,4.08,8.66,0.55,4.08,4.58,0.2,0.35,1,91.67,51.67,96.67,91.67,-0.15713750754509692,0.9562357510833132,-0.5261611861395171,-0.7491756517555886,0.002647773658578259,0.6464790279972921,0.7881522893386658,-0.2716552241947502,0.03849716049319382,0.03849716049319382,0.15713750754509692,-0.07175397081922431,-0.6693011987477047,0.8240825588281949,0.6098284573833903,0.3473300635277514,-3.8947993198420168,0.6636530349108599,-0.16687785441072625,1,0,1
95,2,170,37,62_cadbury_wispa.png,0.2,32_snickers.png,0.05,1,2518,38,692,2.0,-390,674,284,1,1,-0.15000000000000002,-0.4136856898016383,0.15000000000000002,-0.7119874555983684,-1.1299441880098622,0.26524812558878297,4.42,0.58,5.0,5.58,0.25,5.0,0.58,0.05,0.2,1,61.67,91.67,100.0,100.0,1.567927283355335,0.001756077321854616,-1.4456661716260542,-1.4014204755331252,-0.6328179044003867,1.0735323395359675,-1.0740371664097046,-0.2716552241947502,-0.4689368636259026,0.4689368636259026,1.567927283355335,-0.7095670447678752,-1.3178837870361928,-1.0415007465414905,1.0352632864205242,-1.6476572581954658,-0.19753775314325725,0.8991868381502771,0.5863386956941734,0,0,0
96,2,172,56,2_maynards_winegums.png,0.0,112_lindt_extra_creamy.png,0.2,0,1823,100,754,2.0,89,472,561,1,2,0.2,0.6361511060695887,0.2,-0.4372656077790621,0.7815575761541609,-0.2892011312530654,5.0,0.0,5.0,5.0,0.2,0.0,5.0,0.0,0.2,1,100.0,100.0,100.0,100.0,1.771288579843597,-0.17798360150335515,-1.5989170025404764,-1.618835416792304,-0.6328179044003867,-1.2474095710003137,0.9836821821922448,-0.2716552241947502,0.33324431641715746,0.33324431641715746,1.771288579843597,-1.5599844766994098,-0.6693011987477047,-1.3120103258200948,1.0352632864205242,0.901271543192898,0.5724169681217594,0.8991868381502771,0.5863386956941734,1,0,1
97,2,174,17,30_starburst_original.png,0.0,36_nature_valley_protein_bars.png,0.2,0,1594,88,1085,2.0,-327,660,333,1,2,0.2,0.6361511060695887,0.2,-0.4372656077790621,0.4115894927675758,-0.4718901669606673,-0.5,0.58,0.08,0.66,0.2,0.58,0.08,0.0,0.2,1,100.0,91.67,91.67,96.67,-0.15713750754509692,-1.522932232712683,-1.5989170025404764,-1.618835416792304,-0.6328179044003867,-0.9781803093781049,-1.3068108483782508,-0.2716552241947502,-0.3634307794031201,0.3634307794031201,0.15713750754509692,-1.5599844766994098,-0.6693011987477047,-1.0415007465414905,-1.2398881906041486,0.901271543192898,-0.19753775314325725,0.3099986756925157,0.2852329199619627,0,0,0
98,2,179,54,63_kitkat.png,0.2,47_daim.png,0.35,1,1358,64,1321,2.0,-204,701,497,1,1,0.14999999999999994,0.4861744209451276,0.14999999999999994,-0.7119874555983687,-0.3283466740055945,-0.6601635836724317,-3.92,5.0,1.08,6.08,0.55,1.08,5.0,0.35,0.2,0,91.67,100.0,86.67,91.67,-1.356267910975885,0.15670407630910438,-0.5261611861395171,-0.0969308279780522,-0.6328179044003867,-0.7460861183244767,0.9836821821922448,-0.2716552241947502,-0.15744271020625925,0.15744271020625925,1.356267910975885,-0.7095670447678752,-0.020718610459216674,1.0199688058920118,-0.7774590286072638,0.3473300635277514,0.5724169681217594,-0.043655683525828666,-0.16687785441072625,0,0,0
99,2,184,18,24_twix.png,0.35,14_maltesers.png,0.05,0,1569,22,972,2.0,-907,907,0,1,1,-0.3,-0.8636157451750212,0.3,0.11217808785955093,-1.6232349658586425,-0.4918343848326762,0.0,5.0,5.0,10.0,0.4,5.0,5.0,0.35,0.05,0,96.67,100.0,96.67,100.0,0.018173954944784368,1.371496388369143,-0.9859136788827856,-0.0969308279780522,-1.268283582459352,1.0735323395359675,0.9836821821922448,-0.2716552241947502,-1.3347566341525456,1.3347566341525456,0.018173954944784368,-0.07175397081922431,-1.3178837870361928,1.0199688058920118,1.0352632864205242,0.6798279504816209,0.5724169681217594,0.6636530349108599,0.5863386956941734,0,0,0
100,2,187,19,34_hobnob_flapjack.png,0.2,109_kp_roast.png,0.35,0,1527,82,1340,2.0,43,504,547,1,2,0.14999999999999994,0.4861744209451276,0.14999999999999994,-0.7119874555983687,0.2266054510742832,-0.5253406708576512,4.25,0.33,4.58,4.91,0.55,0.33,4.58,0.2,0.35,1,46.67,96.67,91.67,96.67,1.5083213861087754,-0.20587424132106005,-0.5261611861395171,-0.7491756517555886,0.002647773658578259,-1.0942274049049188,0.7881522893386658,-0.2716552241947502,0.25620812793703057,0.25620812793703057,1.5083213861087754,-0.7095670447678752,-0.020718610459216674,-1.158099703127096,0.8410430383818327,-2.6451509190570746,0.2646199426940877,0.3099986756925157,0.2852329199619627,0,0,1
101,2,194,16,41_jelly_babies_berry_mix.png,0.0,50_nakd_rhubarb_and_custard.png,0.35,0,1476,100,1622,2.0,-155,583,428,1,1,0.35,1.0860811614429715,0.35,0.3868999356788573,0.7815575761541609,-0.5660268753165495,0.08,0.0,0.08,0.08,0.35,0.0,0.08,0.0,0.35,1,100.0,100.0,46.67,100.0,0.046223788943165374,-1.7026719115378928,-1.1391645097972083,-1.618835416792304,0.002647773658578259,-1.2474095710003137,-1.3068108483782508,-0.2716552241947502,-0.07538242247742848,0.07538242247742848,0.046223788943165374,-1.5599844766994098,-0.020718610459216674,-1.3120103258200948,-1.2398881906041486,0.901271543192898,0.5724169681217594,-2.872890557272583,0.5863386956941734,1,0,0
102,2,198,20,26_yorkie.png,0.35,43_mccoys_steak_crisps.png,0.35,0,861,78,1405,2.0,-50,392,342,1,1,0.0,0.03624436557174476,0.0,-1.536152999056288,0.10328275661208818,-1.0566546349679693,3.5,0.33,3.83,4.16,0.7,0.33,3.83,0.35,0.35,1,66.67,96.67,96.67,81.67,1.2453541923739533,-0.4382962398019347,-0.06640869339624902,-0.0969308279780522,0.002647773658578259,-1.0942274049049188,0.4389917663858464,-0.2716552241947502,0.1004610512272089,0.1004610512272089,1.2453541923739533,-0.07175397081922431,-0.020718610459216674,-1.158099703127096,0.4942211668841691,-1.3151593712415963,0.2646199426940877,0.6636530349108599,-1.0710994031561039,0,0,1
103,2,199,39,55_bassetts_licorice_allsorts.png,0.2,52_discos_salt_vinegar.png,0.35,0,1220,100,2020,2.0,-177,565,388,1,1,0.14999999999999994,0.4861744209451276,0.14999999999999994,-0.7119874555983687,0.7815575761541609,-0.7702556663259209,0.33,0.0,0.33,0.33,0.55,0.0,0.33,0.2,0.35,1,61.67,100.0,61.67,96.67,0.13387952018810606,-1.625197912044268,-0.5261611861395171,-0.7491756517555886,0.002647773658578259,-1.2474095710003137,-1.1904240073939776,-0.2716552241947502,-0.11222581696792393,0.11222581696792393,0.13387952018810606,-0.7095670447678752,-0.020718610459216674,-1.3120103258200948,-1.1242809001049274,-1.6476572581954658,0.5724169681217594,-1.8119274796175504,0.2852329199619627,1,0,0
104,2,208,57,116_boots_caramels.png,0.2,48_mentos_mint.png,0.0,0,2884,90,731,1.0,-211,461,250,1,1,-0.2,-0.5636623749260993,0.2,-0.4372656077790621,0.4732508399986733,0.5572314752349938,2.92,2.08,5.0,7.08,0.2,2.08,5.0,0.2,0.0,1,100.0,100.0,100.0,100.0,1.041992895885691,0.466600074283604,-1.5989170025404764,-0.7491756517555886,-1.4801054751456737,-0.2818977362172204,0.9836821821922448,-0.2716552241947502,-0.16916560845323508,0.16916560845323508,1.041992895885691,-0.7095670447678752,-1.5340779831323557,-0.3419070070278585,1.0352632864205242,0.901271543192898,0.5724169681217594,0.8991868381502771,0.5863386956941734,0,0,0
105,2,209,37,32_snickers.png,0.05,62_cadbury_wispa.png,0.2,1,1358,50,1315,1.0,-356,764,408,2,2,0.15000000000000002,0.4861744209451278,0.15000000000000002,-0.7119874555983684,-0.7599761046232771,-0.6601635836724317,-4.42,5.0,0.58,5.58,0.25,0.58,5.0,0.2,0.05,1,100.0,100.0,61.67,91.67,-1.531579373465766,0.001756077321854616,-1.4456661716260542,-0.7491756517555886,-1.268283582459352,-0.9781803093781049,0.9836821821922448,1.490432716527955,-0.41199707214059145,0.41199707214059145,1.531579373465766,-1.3473801187165264,-0.6693011987477047,1.0199688058920118,-1.0086736096057058,0.901271543192898,0.5724169681217594,-1.8119274796175504,-0.16687785441072625,0,1,0
106,2,210,16,50_nakd_rhubarb_and_custard.png,0.35,41_jelly_babies_berry_mix.png,0.0,0,1663,100,999,1.0,92,536,628,1,2,-0.35,-1.013592430299482,0.35,0.3868999356788573,0.7815575761541609,-0.4168441256339226,-0.08,0.08,0.0,0.08,0.35,0.08,0.0,0.35,0.0,1,46.67,100.0,100.0,100.0,-0.009875879053596642,-1.7026719115378928,-1.1391645097972083,-0.0969308279780522,-1.4801054751456737,-1.2102745004317328,-1.3440546374932183,-0.2716552241947502,0.33826841566586136,0.33826841566586136,0.009875879053596642,-0.07175397081922431,-1.5340779831323557,-1.274698659712701,-1.2768825235638994,-2.6451509190570746,0.5724169681217594,0.8991868381502771,0.5863386956941734,1,0,1
107,2,211,58,59_crunchie.png,0.2,51_smarties.png,0.0,0,1382,86,801,1.0,-220,448,228,1,1,-0.2,-0.5636623749260993,0.2,-0.4372656077790621,0.3499281455364783,-0.6410171345153031,-0.75,0.83,0.08,0.91,0.2,0.83,0.08,0.2,0.0,1,71.67,86.67,100.0,100.0,-0.2447932387900376,-1.4454582332190582,-1.5989170025404764,-0.7491756517555886,-1.4801054751456737,-0.8621332138512907,-1.3068108483782508,-0.2716552241947502,-0.18423790619934685,0.18423790619934685,0.2447932387900376,-0.7095670447678752,-1.5340779831323557,-0.9249017899558852,-1.2398881906041486,-0.9826614842877268,-0.6596954489806022,0.8991868381502771,0.5863386956941734,0,0,0
108,2,218,39,52_discos_salt_vinegar.png,0.35,55_bassetts_licorice_allsorts.png,0.2,0,819,100,686,1.0,3,267,270,1,1,-0.14999999999999994,-0.4136856898016381,0.14999999999999994,-0.7119874555983687,0.7815575761541609,-1.0901609209929444,-0.33,0.33,0.0,0.33,0.55,0.33,0.0,0.35,0.2,1,61.67,96.67,61.67,100.0,-0.0975316102985373,-1.625197912044268,-0.5261611861395171,-0.0969308279780522,-0.6328179044003867,-1.0942274049049188,-1.3440546374932183,-0.2716552241947502,0.1892201379543116,0.1892201379543116,0.0975316102985373,-0.07175397081922431,-0.6693011987477047,-1.158099703127096,-1.2768825235638994,-1.6476572581954658,0.2646199426940877,-1.8119274796175504,0.5863386956941734,1,0,1
109,2,219,36,29_mms_peanut.png,0.2,56_marshmallows.png,0.2,1,1925,30,706,1.0,-608,802,194,1,1,0.0,0.03624436557174476,0.0,-1.536152999056288,-1.3765895769342522,-0.20782872233526892,-2.92,5.0,2.08,7.08,0.4,2.08,5.0,0.2,0.2,1,96.67,100.0,100.0,91.67,-1.0056449859961225,0.466600074283604,-0.9859136788827856,-0.7491756517555886,-0.6328179044003867,-0.2818977362172204,0.9836821821922448,-0.2716552241947502,-0.8340214090317211,0.8340214090317211,1.0056449859961225,-0.7095670447678752,-0.6693011987477047,1.0199688058920118,-0.31502986661037913,0.6798279504816209,0.5724169681217594,0.8991868381502771,-0.16687785441072625,0,0,0
110,2,220,40,13_fruit_pastilles.png,0.0,35_mms_plain.png,0.2,1,1062,94,1572,1.0,-233,590,357,1,1,0.2,0.6361511060695887,0.2,-0.4372656077790621,0.5965735344608684,-0.8963031232770174,4.92,0.08,5.0,5.08,0.2,5.0,0.08,0.2,0.0,1,100.0,100.0,91.67,100.0,1.7432387458452163,-0.15319192166539514,-1.5989170025404764,-0.7491756517555886,-1.4801054751456737,1.0735323395359675,-1.3068108483782508,-0.2716552241947502,-0.20600900294373053,0.20600900294373053,1.7432387458452163,-1.5599844766994098,-0.6693011987477047,-1.274698659712701,1.0352632864205242,0.901271543192898,0.5724169681217594,0.3099986756925157,0.5863386956941734,1,0,0
111,2,224,60,27_mars.png,0.05,63_kitkat.png,0.2,1,883,50,1153,1.0,119,321,440,1,1,0.15000000000000002,0.4861744209451278,0.15000000000000002,-0.7119874555983684,-0.7599761046232771,-1.0391037232406013,0.0,5.0,5.0,10.0,0.25,5.0,5.0,0.2,0.05,1,100.0,100.0,91.67,100.0,0.018173954944784368,1.371496388369143,-1.4456661716260542,-0.7491756517555886,-1.268283582459352,1.0735323395359675,0.9836821821922448,-0.2716552241947502,0.3834853089041967,0.3834853089041967,0.018173954944784368,-1.3473801187165264,-0.6693011987477047,1.0199688058920118,1.0352632864205242,0.901271543192898,0.5724169681217594,0.3099986756925157,0.5863386956941734,0,0,1
112,2,226,38,18_galaxy_bar.png,0.05,42_dairy_milk_fruit_and_nut.png,0.2,1,1317,48,1506,1.0,-163,660,497,2,2,0.15000000000000002,0.4861744209451278,0.15000000000000002,-0.7119874555983684,-0.8216374518543746,-0.6928721009825263,0.0,5.0,5.0,10.0,0.25,5.0,5.0,0.2,0.05,1,96.67,100.0,100.0,100.0,0.018173954944784368,1.371496388369143,-1.4456661716260542,-0.7491756517555886,-1.268283582459352,1.0735323395359675,0.9836821821922448,1.490432716527955,-0.08878002047397228,0.08878002047397228,0.018173954944784368,-1.3473801187165264,-0.6693011987477047,1.0199688058920118,1.0352632864205242,0.6798279504816209,0.5724169681217594,0.8991868381502771,0.5863386956941734,0,1,1
113,2,235,14,48_mentos_mint.png,0.0,39_milkyway.png,0.35,1,1345,100,1638,1.0,-519,733,214,1,1,0.35,1.0860811614429715,0.35,0.3868999356788573,0.7815575761541609,-0.6705345769658763,0.0,5.0,5.0,10.0,0.35,5.0,5.0,0.35,0.0,1,100.0,100.0,96.67,100.0,0.018173954944784368,1.371496388369143,-1.1391645097972083,-0.0969308279780522,-1.4801054751456737,1.0735323395359675,0.9836821821922448,-0.2716552241947502,-0.6849731313201713,0.6849731313201713,0.018173954944784368,-1.5599844766994098,-0.020718610459216674,1.0199688058920118,1.0352632864205242,0.901271543192898,0.5724169681217594,0.6636530349108599,0.5863386956941734,1,0,0
114,2,238,59,54_milkyway_magic_stars.png,0.2,40_nestle_rolo.png,0.0,1,1740,18,706,1.0,-140,704,564,2,2,-0.2,-0.5636623749260993,0.2,-0.4372656077790621,-1.7465576603208377,-0.3554159345881351,0.25,4.08,4.33,8.41,0.2,4.33,4.08,0.0,0.2,0,96.67,91.67,86.67,81.67,0.105829686189725,0.8787617515896884,-1.5989170025404764,-1.618835416792304,-0.6328179044003867,0.7625261235241061,0.5553786073701195,1.490432716527955,-0.050261926233908856,0.050261926233908856,0.105829686189725,-0.7095670447678752,-1.5340779831323557,0.5908846456569842,0.7254357478826114,0.6798279504816209,-0.19753775314325725,-0.043655683525828666,-1.0710994031561039,0,1,1
115,3,4,39,58_walnut_whip.png,0.0,19_pistachios.png,0.0,0,2945,8,1861,2.0,106,1072,1178,2,1,0.0,1.0287883480060747e-17,0.0,-1.296892995660979,-2.162170484646137,0.1941619422806743,3.75,0.33,4.08,4.41,0.0,0.33,4.08,0.0,0.0,1,100.0,66.67,96.67,76.67,1.5804309555444995,-0.11264176162984545,-1.5669401675287595,-1.1280008272548503,-1.108107260841485,-1.2434855359531998,1.095959513230628,-0.046454946838697,0.04240673816519695,0.04240673816519695,1.5804309555444995,-1.1179902120906335,-1.1179902120906335,-1.234475118714429,1.0811305645764977,1.2649915334233934,-0.3055237918122938,1.1231201387200274,0.16657065858012834,0,1,1
116,3,6,13,59_crunchie.png,1.1,103_nakd_berry.png,0.2,1,5791,30,2147,2.0,-648,2848,2200,3,2,-0.9000000000000001,-0.6354172554134766,0.9000000000000001,-0.2562953468393917,-1.3662795087027737,1.93781322688068,-1.5,1.83,0.33,2.16,1.3,0.33,1.83,0.2,1.1,1,66.67,41.67,61.67,86.67,-0.6321723822177999,-1.1332214810948746,-0.6656029030210653,-0.9304669355794298,-0.017759452931860778,-1.2434855359531998,-0.29697982620152497,0.8111748409526317,-1.0358458034076619,1.0358458034076619,0.6321723822177999,-0.029681156073202257,-0.9201158382692824,-0.3082328453980587,-1.2344751187144287,-0.1550005342832729,-1.4857599177933518,-0.3680206464504896,0.6386651089725521,0,1,0
117,3,9,16,45_gb_ginger.png,0.65,109_kp_roast.png,0.0,1,5328,100,1788,2.0,1048,1778,2826,5,2,-0.65,-0.4589124622430664,0.65,-0.5453502492898327,1.1661008692988368,1.6541482427732297,1.25,1.33,2.58,3.91,0.65,2.58,1.33,0.0,0.65,1,51.67,56.67,100.0,81.67,0.5268103185148333,-0.33943725484429643,-1.1162715352749124,-1.1280008272548503,-0.4638108288948889,0.14252843687221325,-0.6065219016308923,2.526434416535289,1.3895073935519786,1.3895073935519786,0.5268103185148333,-0.4748984971712424,-1.1179902120906335,-0.6169802698368487,0.15488829126012704,-0.7940608707849229,-0.7776182422047171,1.2649915334233934,0.4026178837763403,1,1,1
118,3,17,18,39_milkyway.png,0.95,116_boots_caramels.png,0.5,1,2385,72,790,2.0,442,764,1206,2,2,-0.45,-0.31770862770673824,0.45,-0.7765941712501855,0.15314871809819267,-0.1489317749983148,-2.5,3.08,0.58,3.66,1.45,0.58,3.08,0.5,0.95,1,31.67,71.67,26.67,76.67,-1.0536206370296666,-0.4528350014515219,-0.5616024494240237,-0.6341660980662988,-0.16644324491953694,-1.089483983417043,0.4768753623718933,-0.046454946838697,0.5229012394496539,0.5229012394496539,1.0536206370296666,-0.17808693643921575,-0.6233042775372557,0.4636357156989165,-1.0801014064950336,-1.6461413194537895,-0.06947656661608215,-1.8591614316210063,0.16657065858012834,1,1,1
119,3,18,19,54_milkyway_magic_stars.png,0.35,50_nakd_rhubarb_and_custard.png,0.5,1,1899,74,1594,2.0,343,633,976,1,2,0.15000000000000002,0.10590287590224612,0.15000000000000002,-1.1234600541907145,0.22550244318395304,-0.4466881082082946,-1.25,3.83,2.58,6.41,0.85,2.58,3.83,0.5,0.35,0,36.67,91.67,56.67,91.67,-0.5268103185148333,0.7945402112279584,-0.97760426381219,-0.6341660980662988,-0.7611784128702409,0.14252843687221325,0.9411884755159442,-0.9040847346300256,0.3813269667497694,0.3813269667497694,0.5268103185148333,-0.7717100579032691,-0.6233042775372557,0.9267568523571016,0.15488829126012704,-1.4331212072865733,0.8747123341687644,-0.5810407586177063,0.874712334168764,1,0,1
120,3,19,32,64_nestle_aero_mint.png,1.1,32_snickers.png,0.0,1,2165,98,1073,2.0,647,536,1183,1,2,-1.1,-0.7766210899498047,1.1,-0.025051424879039042,1.0937471442130766,-0.2837185925007748,-0.5,1.58,1.08,2.66,1.1,1.08,1.58,0.0,1.1,1,41.67,86.67,100.0,81.67,-0.2107241274059333,-0.9064259878804236,-0.8042701744837875,-1.1280008272548503,-0.017759452931860778,-0.7814808783447288,-0.4517508639162086,-0.9040847346300256,0.8160600869595164,0.8160600869595164,0.2107241274059333,-0.029681156073202257,-1.1179902120906335,-0.4626065576174537,-0.7713539820562435,-1.2201010951193565,0.6386651089725528,1.2649915334233934,0.4026178837763403,1,0,1
121,3,20,27,38_milkybar.png,0.95,23_kp_grazing_mix.png,0.0,1,2011,74,1693,2.0,232,516,748,1,2,-0.95,-0.6707182140475585,0.95,-0.19848436634930366,0.22550244318395304,-0.3780693647524969,-1.5,2.08,0.58,2.66,0.95,0.58,2.08,0.0,0.95,1,61.67,46.67,100.0,56.67,-0.6321723822177999,-0.9064259878804236,-0.9082706280808291,-1.1280008272548503,-0.16644324491953694,-1.089483983417043,-0.14220878848684132,-0.9040847346300256,0.22259217614686835,0.22259217614686835,0.6321723822177999,-0.17808693643921575,-1.1179902120906335,-0.15385913317866365,-1.0801014064950336,-0.3680206464504896,-1.2497126925971402,1.2649915334233934,-0.7776182422047193,1,0,1
122,3,21,40,35_mms_plain.png,0.0,25_wonderful_almonds.png,0.0,1,4543,12,1157,2.0,-767,2286,1519,3,2,0.0,1.0287883480060747e-17,0.0,-1.296892995660979,-2.0174630344746163,1.1732043712303608,-1.0,1.83,0.83,2.66,0.0,0.83,1.83,0.0,0.0,1,100.0,86.67,100.0,81.67,-0.4214482548118666,-0.9064259878804236,-1.5669401675287595,-1.1280008272548503,-1.108107260841485,-0.9354824308808858,-0.29697982620152497,0.8111748409526317,-1.2060209392792407,1.2060209392792407,0.4214482548118666,-1.1179902120906335,-1.1179902120906335,-0.3082328453980587,-0.9257276942756386,1.2649915334233934,0.6386651089725528,1.2649915334233934,0.4026178837763403,0,1,0
123,3,23,20,41_jelly_babies_berry_mix.png,0.35,55_bassetts_licorice_allsorts.png,0.05,1,3357,42,1186,2.0,-321,1558,1237,1,2,-0.3,-0.21180575180449213,0.3,-0.9500271127204498,-0.9321571581882121,0.4465808914216449,0.5,3.08,3.58,6.66,0.4,3.58,3.08,0.05,0.35,1,51.67,76.67,100.0,31.67,0.2107241274059333,0.9079379578351838,-1.2896056246033152,-1.0786173543359951,-0.7611784128702409,0.7585346470168413,0.4768753623718933,-0.9040847346300256,-0.5682216905504672,0.5682216905504672,0.2107241274059333,-0.7717100579032691,-1.0685216186352955,0.4636357156989165,0.7723831401377074,-0.7940608707849229,0.16657065858012948,1.2649915334233934,-1.9578543681857792,0,0,0
124,3,25,37,48_mentos_mint.png,0.65,32_snickers.png,0.0,1,3132,40,3937,2.0,-433,1388,955,3,2,-0.65,-0.4589124622430664,0.65,-0.5453502492898327,-1.0045108832739722,0.3087307371577653,-0.5,1.58,1.08,2.66,0.65,1.08,1.58,0.0,0.65,1,61.67,36.67,100.0,81.67,-0.2107241274059333,-0.9064259878804236,-1.1162715352749124,-1.1280008272548503,-0.4638108288948889,-0.7814808783447288,-0.4517508639162086,0.8111748409526317,-0.7283865243119529,0.7283865243119529,0.2107241274059333,-0.4748984971712424,-1.1179902120906335,-0.4626065576174537,-0.7713539820562435,-0.3680206464504896,-1.7218071429895636,1.2649915334233934,0.4026178837763403,0,1,0
125,3,26,26,20_crunch.png,0.95,48_mentos_mint.png,0.65,1,8554,46,1158,2.0,-916,3846,2930,3,2,-0.29999999999999993,-0.21180575180449213,0.29999999999999993,-0.95002711272045,-0.7874497080166912,3.6306131212411215,1.0,0.58,1.58,2.16,1.6,1.58,0.58,0.65,0.95,1,51.67,91.67,61.67,36.67,0.4214482548118666,-1.1332214810948746,-0.457601995826982,-0.4860156793097332,-0.16644324491953694,-0.4734777732724148,-1.0708350147749433,0.8111748409526317,-1.4190973699083602,1.4190973699083602,0.4214482548118666,-0.17808693643921575,-0.4748984971712423,-1.0801014064950338,-0.4626065576174533,-0.7940608707849229,0.8747123341687644,-0.3680206464504896,-1.721807142989567,0,1,0
126,3,29,53,11_lindt_orange.png,0.35,117_yogurt_raisins.png,1.1,1,5040,28,1441,2.0,1462,1274,2736,3,2,0.7500000000000001,0.5295143795112305,0.7500000000000001,-0.4297282883096562,-1.438633233788534,1.4777000453154638,1.25,0.83,2.08,2.91,1.45,2.08,0.83,1.1,0.35,0,56.67,81.67,56.67,31.67,0.5268103185148333,-0.7930282412731983,-0.5616024494240237,-0.041564423040036574,-0.7611784128702409,-0.16547466820010076,-0.9160639770602595,0.8111748409526317,1.9815452612060416,1.9815452612060416,0.5268103185148333,-0.7717100579032691,-0.029681156073202045,-0.9257276942756388,-0.15385913317866315,-0.5810407586177063,0.4026178837763411,-0.5810407586177063,-1.9578543681857792,0,1,1
127,3,34,38,40_nestle_rolo.png,0.05,60_caramel_rice_crisps.png,0.2,1,3671,18,1781,2.0,-84,1414,1330,3,2,0.15000000000000002,0.10590287590224612,0.15000000000000002,-1.1234600541907145,-1.8004018592173356,0.6389584400387923,-0.5,1.33,0.83,2.16,0.25,0.83,1.33,0.2,0.05,0,91.67,81.67,61.67,71.67,-0.2107241274059333,-1.1332214810948746,-1.3936060782003568,-0.9304669355794298,-1.058545996845593,-0.9354824308808858,-0.6065219016308923,0.8111748409526317,-0.2293014619658949,0.2293014619658949,0.2107241274059333,-1.0685216186352955,-0.9201158382692824,-0.6169802698368487,-0.9257276942756386,0.9101000265528104,0.4026178837763411,-0.3680206464504896,-0.06947656661608358,0,1,0
128,3,36,17,47_daim.png,0.5,15_jacobs_mini_cheddars.png,0.65,0,2340,28,723,2.0,-178,858,680,2,1,0.15000000000000002,0.10590287590224612,0.15000000000000002,-1.1234600541907145,-1.438633233788534,-0.17650180585109074,3.5,0.08,3.58,3.66,1.15,0.08,3.58,0.5,0.65,1,6.67,91.67,71.67,61.67,1.4750688918415331,-0.4528350014515219,-0.7696033566181071,-0.6341660980662988,-0.4638108288948889,-1.3974870884893569,0.7864174378012606,-0.046454946838697,-0.3637255188728561,0.3637255188728561,1.4750688918415331,-0.6233042775372557,-0.4748984971712423,-1.3888488309338238,0.7723831401377074,-2.711241880289873,0.8747123341687644,0.0580195778839438,-0.5415710170085074,0,1,0
129,3,38,56,53_eat_natural_almond_apricot.png,0.0,108_chilli_nuts.png,0.0,1,5185,20,1447,2.0,-290,2252,1962,3,2,0.0,1.0287883480060747e-17,0.0,-1.296892995660979,-1.7280481341315752,1.5665368113966307,-2.5,3.08,0.58,3.66,0.0,0.58,3.08,0.0,0.0,1,95.0,71.67,91.67,71.67,-1.0536206370296666,-0.4528350014515219,-1.5669401675287595,-1.1280008272548503,-1.108107260841485,-1.089483983417043,0.4768753623718933,0.8111748409526317,-0.5238903526343418,0.5238903526343418,1.0536206370296666,-1.1179902120906335,-1.1179902120906335,0.4636357156989165,-1.0801014064950336,1.0519714212561768,-0.06947656661608215,0.9101000265528104,-0.06947656661608358,0,1,0
130,3,41,27,38_milkybar.png,0.95,23_kp_grazing_mix.png,0.0,0,4138,84,1527,1.0,-1344,2228,884,2,1,-0.95,-0.6707182140475585,0.95,-0.19848436634930366,0.5872710686127545,0.9250740935553778,-1.5,2.08,0.58,2.66,0.95,2.08,0.58,0.95,0.0,1,61.67,46.67,100.0,56.67,-0.6321723822177999,-0.9064259878804236,-0.9082706280808291,-0.18971484179660225,-1.108107260841485,-0.16547466820010076,-1.0708350147749433,-0.046454946838697,-2.0311558417826094,2.0311558417826094,0.6321723822177999,-0.17808693643921575,-1.1179902120906335,-0.15385913317866365,-1.0801014064950336,-0.3680206464504896,-1.2497126925971402,1.2649915334233934,-0.7776182422047193,1,0,0
131,3,42,32,64_nestle_aero_mint.png,1.1,32_snickers.png,0.0,0,1615,94,1745,1.0,-122,682,560,2,1,-1.1,-0.7766210899498047,1.1,-0.025051424879039042,0.949039694041556,-0.6206856362569249,-0.5,1.58,1.08,2.66,1.1,1.58,1.08,1.1,0.0,1,41.67,86.67,100.0,81.67,-0.2107241274059333,-0.9064259878804236,-0.8042701744837875,-0.041564423040036574,-1.108107260841485,-0.4734777732724148,-0.7612929393455758,-0.046454946838697,-0.28364310199211323,0.28364310199211323,0.2107241274059333,-0.029681156073202257,-1.1179902120906335,-0.4626065576174537,-0.7713539820562435,-1.2201010951193565,0.6386651089725528,1.2649915334233934,0.4026178837763403,1,1,0
132,3,43,18,39_milkyway.png,0.95,116_boots_caramels.png,0.5,0,1521,92,1168,1.0,-22,526,504,2,1,-0.45,-0.31770862770673824,0.45,-0.7765941712501855,0.8766859689557958,-0.6782763673716123,-2.5,3.08,0.58,3.66,1.45,3.08,0.58,0.95,0.5,1,31.67,71.67,26.67,76.67,-1.0536206370296666,-0.4528350014515219,-0.5616024494240237,-0.18971484179660225,-0.6124946208825649,0.4505315419445273,-1.0708350147749433,-0.046454946838697,-0.14063878613364386,0.14063878613364386,1.0536206370296666,-0.17808693643921575,-0.6233042775372557,0.4636357156989165,-1.0801014064950336,-1.6461413194537895,-0.06947656661608215,-1.8591614316210063,0.16657065858012834,1,1,0
133,3,47,13,59_crunchie.png,1.1,103_nakd_berry.png,0.2,0,3630,58,1040,1.0,1352,832,2184,2,1,-0.9000000000000001,-0.6354172554134766,0.9000000000000001,-0.2562953468393917,-0.35332735750212946,0.6138390785951521,-1.5,1.83,0.33,2.16,1.3,1.83,0.33,1.1,0.2,1,66.67,41.67,61.67,86.67,-0.6321723822177999,-1.1332214810948746,-0.6656029030210653,-0.041564423040036574,-0.909862204857917,-0.3194762207362577,-1.2256060524896268,-0.046454946838697,1.8242405137617252,1.8242405137617252,0.6321723822177999,-0.029681156073202257,-0.9201158382692824,-0.3082328453980587,-1.2344751187144287,-0.1550005342832729,-1.4857599177933518,-0.3680206464504896,0.6386651089725521,0,1,1
134,3,50,38,40_nestle_rolo.png,0.05,60_caramel_rice_crisps.png,0.2,0,2833,34,1562,1.0,740,880,1620,2,1,0.15000000000000002,0.10590287590224612,0.15000000000000002,-1.1234600541907145,-1.2215720585312528,0.12554319882487647,-0.5,1.33,0.83,2.16,0.25,1.33,0.83,0.05,0.2,0,91.67,81.67,61.67,71.67,-0.2107241274059333,-1.1332214810948746,-1.3936060782003568,-1.0786173543359951,-0.909862204857917,-0.6274793258085718,-0.9160639770602595,-0.046454946838697,0.9490541007078928,0.9490541007078928,0.2107241274059333,-1.0685216186352955,-0.9201158382692824,-0.6169802698368487,-0.9257276942756386,0.9101000265528104,0.4026178837763411,-0.3680206464504896,-0.06947656661608358,0,1,1
135,3,51,37,48_mentos_mint.png,0.65,32_snickers.png,0.0,0,1616,74,1570,1.0,-255,845,590,2,1,-0.65,-0.4589124622430664,0.65,-0.5453502492898327,0.22550244318395304,-0.6200729689046409,-0.5,1.58,1.08,2.66,0.65,1.58,1.08,0.65,0.0,1,61.67,36.67,100.0,81.67,-0.2107241274059333,-0.9064259878804236,-1.1162715352749124,-0.4860156793097332,-1.108107260841485,-0.4734777732724148,-0.7612929393455758,-0.046454946838697,-0.4738388420838775,0.4738388420838775,0.2107241274059333,-0.4748984971712424,-1.1179902120906335,-0.4626065576174537,-0.7713539820562435,-0.3680206464504896,-1.7218071429895636,1.2649915334233934,0.4026178837763403,0,1,0
136,3,54,56,53_eat_natural_almond_apricot.png,0.0,108_chilli_nuts.png,0.0,0,2881,22,1769,1.0,8,1174,1182,2,1,0.0,1.0287883480060747e-17,0.0,-1.296892995660979,-1.6556944090458148,0.15495123173450412,-2.5,3.08,0.58,3.66,0.0,3.08,0.58,0.0,0.0,1,95.0,71.67,91.67,71.67,-1.0536206370296666,-0.4528350014515219,-1.5669401675287595,-1.1280008272548503,-1.108107260841485,0.4505315419445273,-1.0708350147749433,-0.046454946838697,-0.09773749137610303,0.09773749137610303,1.0536206370296666,-1.1179902120906335,-1.1179902120906335,0.4636357156989165,-1.0801014064950336,1.0519714212561768,-0.06947656661608215,0.9101000265528104,-0.06947656661608358,0,1,0
137,3,55,16,45_gb_ginger.png,0.65,109_kp_roast.png,0.0,0,2592,66,1260,1.0,-431,1219,788,2,1,-0.65,-0.4589124622430664,0.65,-0.5453502492898327,-0.06391245715908822,-0.022109633075545625,1.25,1.33,2.58,3.91,0.65,1.33,2.58,0.65,0.0,1,51.67,56.67,100.0,81.67,0.5268103185148333,-0.33943725484429643,-1.1162715352749124,-0.4860156793097332,-1.108107260841485,-0.6274793258085718,0.16733328694252594,-0.046454946838697,-0.7255264379947836,0.7255264379947836,0.5268103185148333,-0.4748984971712424,-1.1179902120906335,-0.6169802698368487,0.15488829126012704,-0.7940608707849229,-0.7776182422047171,1.2649915334233934,0.4026178837763403,0,1,0
138,3,58,39,58_walnut_whip.png,0.0,19_pistachios.png,0.0,1,4289,0,1000,1.0,1275,1036,2311,3,2,0.0,1.0287883480060747e-17,0.0,-1.296892995660979,-2.4515853849891784,1.017586863750248,3.75,0.33,4.08,4.41,0.0,4.08,0.33,0.0,0.0,1,100.0,66.67,96.67,76.67,1.5804309555444995,-0.11264176162984545,-1.5669401675287595,-1.1280008272548503,-1.108107260841485,1.0665377520891552,-1.2256060524896268,0.8111748409526317,1.714127190550704,1.714127190550704,1.5804309555444995,-1.1179902120906335,-1.1179902120906335,-1.234475118714429,1.0811305645764977,1.2649915334233934,-0.3055237918122938,1.1231201387200274,0.16657065858012834,0,1,1
139,3,65,20,41_jelly_babies_berry_mix.png,0.35,55_bassetts_licorice_allsorts.png,0.05,0,1236,100,2428,1.0,289,405,694,1,1,-0.3,-0.21180575180449213,0.3,-0.9500271127204498,1.1661008692988368,-0.8528865627725264,0.5,3.08,3.58,6.66,0.4,3.08,3.58,0.35,0.05,1,51.67,76.67,100.0,31.67,0.2107241274059333,0.9079379578351838,-1.2896056246033152,-0.7823165168228643,-1.058545996845593,0.4505315419445273,0.7864174378012606,-0.9040847346300256,0.30410463618619593,0.30410463618619593,0.2107241274059333,-0.7717100579032691,-1.0685216186352955,0.4636357156989165,0.7723831401377074,-0.7940608707849229,0.16657065858012948,1.2649915334233934,-1.9578543681857792,1,0,1
140,3,68,40,35_mms_plain.png,0.0,25_wonderful_almonds.png,0.0,0,1984,44,1914,1.0,-416,976,560,3,1,0.0,1.0287883480060747e-17,0.0,-1.296892995660979,-0.8598034331024516,-0.3946113832641624,-1.0,1.83,0.83,2.66,0.0,1.83,0.83,0.0,0.0,1,100.0,86.67,100.0,81.67,-0.4214482548118666,-0.9064259878804236,-1.5669401675287595,-1.1280008272548503,-1.108107260841485,-0.3194762207362577,-0.9160639770602595,0.8111748409526317,-0.7040757906160132,0.7040757906160132,0.4214482548118666,-1.1179902120906335,-1.1179902120906335,-0.3082328453980587,-0.9257276942756386,1.2649915334233934,0.6386651089725528,1.2649915334233934,0.4026178837763403,0,1,0
141,3,71,53,11_lindt_orange.png,0.35,117_yogurt_raisins.png,1.1,0,3178,36,773,1.0,316,922,1238,3,1,0.7500000000000001,0.5295143795112305,0.7500000000000001,-0.4297282883096562,-1.1492183334454928,0.33691343536282514,1.25,0.83,2.08,2.91,1.45,0.83,2.08,0.35,1.1,0,56.67,81.67,56.67,31.67,0.5268103185148333,-0.7930282412731983,-0.5616024494240237,-0.7823165168228643,-0.017759452931860778,-0.9354824308808858,-0.14220878848684132,0.8111748409526317,0.34271580146798264,0.34271580146798264,0.5268103185148333,-0.7717100579032691,-0.029681156073202045,-0.9257276942756388,-0.15385913317866315,-0.5810407586177063,0.4026178837763411,-0.5810407586177063,-1.9578543681857792,0,1,1
142,3,75,26,20_crunch.png,0.95,48_mentos_mint.png,0.65,0,1914,42,1520,1.0,-315,897,582,2,1,-0.29999999999999993,-0.21180575180449213,0.29999999999999993,-0.95002711272045,-0.9321571581882121,-0.437498097924036,1.0,0.58,1.58,2.16,1.6,0.58,1.58,0.95,0.65,1,51.67,91.67,61.67,36.67,0.4214482548118666,-1.1332214810948746,-0.457601995826982,-0.18971484179660225,-0.4638108288948889,-1.089483983417043,-0.4517508639162086,-0.046454946838697,-0.5596414315989591,0.5596414315989591,0.4214482548118666,-0.17808693643921575,-0.4748984971712423,-1.0801014064950338,-0.4626065576174533,-0.7940608707849229,0.8747123341687644,-0.3680206464504896,-1.721807142989567,0,1,0
143,3,77,19,54_milkyway_magic_stars.png,0.35,50_nakd_rhubarb_and_custard.png,0.5,0,3482,72,4665,1.0,1211,881,2092,3,1,0.15000000000000002,0.10590287590224612,0.15000000000000002,-1.1234600541907145,0.15314871809819267,0.5231643104571335,-1.25,3.83,2.58,6.41,0.85,3.83,2.58,0.35,0.5,0,36.67,91.67,56.67,91.67,-0.5268103185148333,0.7945402112279584,-0.97760426381219,-0.7823165168228643,-0.6124946208825649,0.9125361995529984,0.16733328694252594,0.8111748409526317,1.6226044284012835,1.6226044284012835,0.5268103185148333,-0.7717100579032691,-0.6233042775372557,0.9267568523571016,0.15488829126012704,-1.4331212072865733,0.8747123341687644,-0.5810407586177063,0.874712334168764,0,1,1
144,3,79,17,47_daim.png,0.5,15_jacobs_mini_cheddars.png,0.65,1,1643,88,1316,1.0,243,510,753,2,2,0.15000000000000002,0.10590287590224612,0.15000000000000002,-1.1234600541907145,0.7319785187842751,-0.6035309503929754,3.5,0.08,3.58,3.66,1.15,3.58,0.08,0.65,0.5,1,6.67,91.67,71.67,61.67,1.4750688918415331,-0.4528350014515219,-0.7696033566181071,-0.4860156793097332,-0.6124946208825649,0.7585346470168413,-1.3803770902043104,-0.046454946838697,0.2383226508913,0.2383226508913,1.4750688918415331,-0.6233042775372557,-0.4748984971712423,-1.3888488309338238,0.7723831401377074,-2.711241880289873,0.8747123341687644,0.0580195778839438,-0.5415710170085074,1,1,1
145,3,84,39,19_pistachios.png,0.0,58_walnut_whip.png,0.0,0,2225,18,869,2.0,958,476,1434,1,2,0.0,1.0287883480060747e-17,0.0,-1.296892995660979,-1.8004018592173356,-0.2469585513637403,-3.75,4.08,0.33,4.41,0.0,4.08,0.33,0.0,0.0,1,96.67,76.67,100.0,66.67,-1.5804309555444995,-0.11264176162984545,-1.5669401675287595,-1.1280008272548503,-1.108107260841485,1.0665377520891552,-1.2256060524896268,-0.9040847346300256,1.260803509279356,1.260803509279356,1.5804309555444995,-1.1179902120906335,-1.1179902120906335,1.0811305645764968,-1.2344751187144287,1.1231201387200274,0.16657065858012948,1.2649915334233934,-0.3055237918122955,0,0,1
146,3,86,38,60_caramel_rice_crisps.png,0.2,40_nestle_rolo.png,0.05,0,1676,18,1909,2.0,148,532,680,1,2,-0.15000000000000002,-0.10590287590224608,0.15000000000000002,-1.1234600541907145,-1.8004018592173356,-0.5833129277676063,0.5,0.83,1.33,2.16,0.25,0.83,1.33,0.2,0.05,0,61.67,71.67,91.67,81.67,0.2107241274059333,-1.1332214810948746,-1.3936060782003568,-0.9304669355794298,-1.058545996845593,-0.9354824308808858,-0.6065219016308923,-0.9040847346300256,0.10246855082575408,0.10246855082575408,0.2107241274059333,-0.9201158382692824,-1.0685216186352955,-0.9257276942756388,-0.6169802698368484,-0.3680206464504896,-0.06947656661608215,0.9101000265528104,0.4026178837763403,0,0,1
147,3,87,60,42_dairy_milk_fruit_and_nut.png,0.0,51_smarties.png,0.35,0,2207,32,1409,2.0,-608,1204,596,2,1,0.35,0.24710671043857416,0.35,-0.8922161322303618,-1.2939257836170135,-0.2579865637048506,3.42,1.58,5.0,6.58,0.35,1.58,5.0,0.0,0.35,1,100.0,41.67,81.67,100.0,1.4413530314565837,0.8716506789208716,-1.3242724424689956,-1.1280008272548503,-0.7611784128702409,-0.4734777732724148,1.6655169320206635,-0.046454946838697,-0.9786440770642744,0.9786440770642744,1.4413530314565837,-1.1179902120906335,-0.7717100579032691,-0.4626065576174537,1.6492258255438714,1.2649915334233934,-1.4857599177933518,0.4840598022183772,1.2679670113456531,0,1,0
148,3,88,58,29_mms_peanut.png,0.0,44_walkers_french_fries.png,0.5,0,1493,78,1339,2.0,-84,715,631,1,1,0.5,0.3530095863408203,0.5,-0.7187831907600972,0.3702098933554736,-0.6954310532355618,3.0,0.58,3.58,4.16,0.5,0.58,3.58,0.0,0.5,1,81.67,70.0,61.67,61.67,1.2643447644355998,-0.2260395082370709,-1.220271988871954,-1.1280008272548503,-0.6124946208825649,-1.089483983417043,0.7864174378012606,-0.9040847346300256,-0.2293014619658949,0.2293014619658949,1.2643447644355998,-1.1179902120906335,-0.6233042775372557,-1.0801014064950338,0.7723831401377074,0.4840598022183772,-0.1483163398316169,-0.3680206464504896,-0.5415710170085074,1,0,0
149,3,93,36,23_kp_grazing_mix.png,0.0,52_discos_salt_vinegar.png,0.35,0,2852,48,1588,2.0,-965,1585,620,2,1,0.35,0.24710671043857416,0.35,-0.8922161322303618,-0.7150959829309309,0.13718387851827074,0.25,0.58,0.83,1.41,0.35,0.58,0.83,0.0,0.35,1,100.0,56.67,91.67,86.67,0.10536206370296664,-1.4734147209165511,-1.3242724424689956,-1.1280008272548503,-0.7611784128702409,-1.089483983417043,-0.9160639770602595,-0.046454946838697,-1.48916948467901,1.48916948467901,0.10536206370296664,-1.1179902120906335,-0.7717100579032691,-1.0801014064950338,-0.9257276942756386,1.2649915334233934,-0.7776182422047171,0.9101000265528104,0.6386651089725521,0,1,0
150,3,102,59,110_bombay_mix.png,0.2,103_nakd_berry.png,0.2,0,3875,16,2059,2.0,253,1391,1644,7,1,0.0,1.0287883480060747e-17,0.0,-1.296892995660979,-1.8727555843030959,0.7639425799047098,-0.5,0.83,0.33,1.16,0.4,0.83,0.33,0.2,0.2,1,71.67,71.67,61.67,86.67,-0.2107241274059333,-1.5868124675237767,-1.2896056246033152,-0.9304669355794298,-0.909862204857917,-0.9354824308808858,-1.2256060524896268,4.241693992117947,0.2526230824771469,0.2526230824771469,0.2107241274059333,-0.9201158382692824,-0.9201158382692824,-0.9257276942756388,-1.2344751187144287,0.0580195778839438,-0.06947656661608215,-0.3680206464504896,0.6386651089725521,0,1,1
151,3,103,37,32_snickers.png,0.0,48_mentos_mint.png,0.65,0,2880,94,5831,2.0,518,860,1378,2,2,0.65,0.4589124622430664,0.65,-0.5453502492898327,0.949039694041556,0.1543385643822202,0.5,1.08,1.58,2.66,0.65,1.08,1.58,0.0,0.65,1,100.0,81.67,61.67,36.67,0.2107241274059333,-0.9064259878804236,-1.1162715352749124,-1.1280008272548503,-0.4638108288948889,-0.7814808783447288,-0.4517508639162086,-0.046454946838697,0.6315845195020908,0.6315845195020908,0.2107241274059333,-1.1179902120906335,-0.4748984971712423,-0.7713539820562438,-0.4626065576174533,1.2649915334233934,0.4026178837763411,-0.3680206464504896,-1.721807142989567,1,1,1
