,Part,TrialN,PairID,LItem,LVal,RItem,RVal,Choice,RT,Conf,ConfRT,BlockCond,DDT,LDwellTime,RDwellTime,GSF,LastFixat,DVal,zDVal,AbsDVal,zAbsDVal,zConf,zRT,DFam,LFam,RFam,TotFam,TotVal,ChosenFam,UnchosenFam,ChosenVal,UnchosenVal,Correct,LValConfBDM,LFamConfBDM,RValConfBDM,RFamConfBDM,zDFam,zTotFam,zTotVal,zChosenVal,zUnchosenVal,zChosenFam,zUnchosenFam,zGSF,zDDT,zAbsDDT,zAbsDFam,zLVal,zRVal,zLFam,zRFam,zLValConfBDM,zLFamConfBDM,zRValConfBDM,zRFamConfBDM,ConfSplit,GSFSplit,DDTSplit
0,1,2,44,102_propercorn_worcester.png,2.3,26_yorkie.png,1.7,1,3424,68,2443,2.0,564,1206,1770,3,2,-0.5999999999999999,-0.9682458365518538,0.5999999999999999,0.2645275057873652,-0.3153860890334407,0.15917416794981182,-1.25,4.83,3.58,8.41,4.0,3.58,4.83,1.7,2.3,1,81.67,91.67,81.67,81.67,-0.6676741408951362,0.38831613866792297,1.5920823293478803,0.4722871796288583,1.7838378510344866,-0.16727452545268726,0.7361540456946504,0.3580227314427213,1.1454034959819643,1.1454034959819643,0.6676741408951362,1.8144282595194468,0.4578463832432223,0.7326173854897696,-0.14962898431969152,-0.12280390168571954,0.18400617386858945,-0.1228039016857171,-1.2554163075020452,0,1,1
1,1,4,12,64_nestle_aero_mint.png,1.55,102_propercorn_worcester.png,2.3,0,8144,68,2981,2.0,-1364,4024,2660,4,1,0.7499999999999998,1.210307295689817,0.7499999999999998,0.6822025149253115,-0.3153860890334407,3.13046027577789,-0.17,5.0,4.83,9.83,3.85,5.0,4.83,1.55,2.3,1,96.67,96.67,81.67,91.67,-0.09080368316173856,1.0558814133754963,1.3544581010870018,0.12880559444423215,1.7838378510344866,0.851256085129295,0.7361540456946504,1.1052006057579662,-1.9938927443382104,1.9938927443382104,0.09080368316173856,0.11870091417416707,1.8144282595194456,0.8526028917838565,0.7326173854897708,1.1284528798965938,0.9037174145539066,-0.1228039016857171,0.1840061738685895,0,1,0
2,1,5,4,44_walkers_french_fries.png,2.0,111_propercorn_sweetnsalty.png,2.0,0,6559,88,2748,2.0,-1454,3478,2024,4,1,0.0,1.0451085762029443e-17,0.0,-1.4061725307644208,1.1805163095441429,2.132687292534775,0.67,4.33,5.0,9.33,4.0,4.33,5.0,2.0,2.0,1,86.67,81.67,96.67,100.0,0.35787333951979305,0.8208232180559283,1.5920823293478803,1.1592503499981108,1.113851803697589,0.37068178295328935,0.8543047284543455,1.1052006057579662,-2.1404366559714143,2.1404366559714143,0.35787333951979305,1.136137321381335,1.1361373213813344,0.3797188375659845,0.8526028917838576,0.2942816921750516,-1.2554163075020448,1.1284528798965956,1.3830451008503282,1,1,0
3,1,9,1,62_cadbury_wispa.png,1.55,47_daim.png,1.7,1,4669,68,2732,2.0,686,1604,2290,3,2,0.1499999999999999,0.2420614591379633,0.1499999999999999,-0.9884975216264744,-0.3153860890334407,0.9429138298663284,0.5,3.33,3.83,7.16,3.25,3.83,3.33,1.7,1.55,0,86.67,81.67,91.67,81.67,0.2670696563580545,-0.19932934963099727,0.4039611880434867,0.4722871796288583,0.10887273269224257,0.012044244015971631,-0.30635197865560043,0.3580227314427213,1.3440519095291952,1.3440519095291952,0.2670696563580545,0.11870091417416707,0.4578463832432223,-0.3260782582815857,0.026820289642200942,0.2942816921750516,-1.2554163075020448,0.7113672860358247,-1.2554163075020452,0,1,1
4,1,14,45,51_smarties.png,1.7,43_mccoys_steak_crisps.png,2.0,1,10424,28,2052,2.0,-991,5054,4063,7,2,0.30000000000000004,0.4841229182759271,0.30000000000000004,-0.5708225124885274,-3.307190886188608,4.565742548203319,0.0,5.0,5.0,10.0,3.7,5.0,5.0,2.0,1.7,0,71.67,100.0,91.67,100.0,-7.906850177798411e-18,1.1358011997841495,1.1168338728261231,1.1592503499981108,0.4438657563606913,0.851256085129295,0.8543047284543455,3.3467342287037005,-1.386549643902824,1.386549643902824,7.906850177798411e-18,0.4578463832432229,1.1361373213813344,0.8526028917838565,0.8526028917838576,-0.9569750894072618,1.3830451008503275,0.7113672860358247,1.3830451008503282,0,1,0
5,1,16,41,11_lindt_orange.png,2.0,59_crunchie.png,1.7,1,5836,58,2950,2.0,76,2458,2534,5,2,-0.30000000000000004,-0.4841229182759271,0.30000000000000004,-0.5708225124885274,-1.0633372883222325,1.6775517298314486,0.25,4.75,5.0,9.75,3.7,5.0,4.75,1.7,2.0,1,86.67,96.67,81.67,96.67,0.13353482817902726,1.0182721021243657,1.1168338728261231,0.4722871796288583,1.113851803697589,0.851256085129295,0.6805537243959703,1.8523784800732108,0.35080984179304026,0.35080984179304026,0.13353482817902726,1.136137321381335,0.4578463832432223,0.6761536178219639,0.8526028917838576,0.2942816921750516,0.9037174145539066,-0.1228039016857171,0.903717414553907,0,1,1
6,1,17,42,63_kitkat.png,1.85,19_pistachios.png,1.7,1,3931,56,3017,2.0,1039,1100,2139,3,2,-0.15000000000000013,-0.2420614591379637,0.15000000000000013,-0.9884975216264741,-1.212927528179991,0.4783356206338872,-0.67,5.0,4.33,9.33,3.55,4.33,5.0,1.7,1.85,1,96.67,96.67,71.67,96.67,-0.35787333951979305,0.8208232180559283,0.8792096445652439,0.4722871796288583,0.7788587800291404,0.37068178295328935,0.8543047284543455,0.3580227314427213,1.9188296962683145,1.9188296962683145,0.35787333951979305,0.7969918523122793,0.4578463832432223,0.8526028917838565,0.3797188375659859,1.1284528798965938,0.9037174145539066,-0.9569750894072591,0.903717414553907,0,1,1
7,1,23,47,51_smarties.png,1.7,34_hobnob_flapjack.png,1.55,1,4550,78,1403,2.0,-544,2188,1644,3,2,-0.1499999999999999,-0.2420614591379633,0.1499999999999999,-0.9884975216264744,0.4325651102553511,0.8680021674020187,-3.92,5.0,1.08,6.08,3.25,1.08,5.0,1.55,1.7,1,71.67,100.0,66.67,86.67,-2.093826105847147,-0.7070550515212645,0.4039611880434867,0.12880559444423215,0.4438657563606913,-1.960462220139276,0.8543047284543455,0.3580227314427213,-0.6587148827912483,0.6587148827912483,2.093826105847147,0.4578463832432229,0.11870091417416655,0.8526028917838565,-1.914121723938616,-0.9569750894072618,1.3830451008503275,-1.3740606832680298,-0.5357050668167279,1,1,0
8,1,26,5,113_walkers_cheese.png,2.0,32_snickers.png,2.3,0,3643,70,2331,2.0,-812,1858,1046,4,1,0.2999999999999998,0.4841229182759267,0.2999999999999998,-0.5708225124885281,-0.16579584917568232,0.2970368072748858,0.67,4.33,5.0,9.33,4.3,4.33,5.0,2.0,2.3,1,91.67,86.67,91.67,91.67,0.35787333951979305,0.8208232180559283,2.067330785869637,1.1592503499981108,1.7838378510344866,0.37068178295328935,0.8543047284543455,1.1052006057579662,-1.095090086321231,1.095090086321231,0.35787333951979305,1.136137321381335,1.8144282595194456,0.3797188375659845,0.8526028917838576,0.7113672860358228,-0.5357050668167278,0.7113672860358247,0.1840061738685895,0,1,0
9,1,29,43,103_nakd_berry.png,1.85,35_mms_plain.png,2.0,0,6784,82,2539,2.0,-498,3186,2688,4,1,0.1499999999999999,0.2420614591379633,0.1499999999999999,-0.9884975216264744,0.7317455899708678,2.274326990471495,2.25,2.58,4.83,7.41,3.85,2.58,4.83,1.85,2.0,1,91.67,86.67,96.67,100.0,1.2018134536112453,-0.08180025197121323,1.3544581010870018,0.8157687648134849,1.113851803697589,-0.8845496033273226,0.7361540456946504,1.1052006057579662,-0.5838146612898334,0.5838146612898334,1.2018134536112453,0.7969918523122793,1.1361373213813344,-0.8554260801672634,0.7326173854897708,0.7113672860358228,-0.5357050668167278,1.1284528798965956,1.3830451008503282,1,1,0
10,1,37,3,108_chilli_nuts.png,1.7,41_jelly_babies_berry_mix.png,1.85,1,3476,72,3189,2.0,-468,1560,1092,3,2,0.15000000000000013,0.2420614591379637,0.15000000000000013,-0.9884975216264741,-0.016205609317923964,0.1919086759174093,1.25,3.33,4.58,7.91,3.55,4.58,3.33,1.85,1.7,0,81.67,81.67,81.67,76.67,0.6676741408951362,0.15325794334835488,0.8792096445652439,0.8157687648134849,0.4438657563606913,0.5500005524219482,-0.30635197865560043,0.3580227314427213,-0.5349666907454322,0.5349666907454322,0.6676741408951362,0.4578463832432229,0.7969918523122785,-0.3260782582815857,0.5561681115278784,-0.12280390168571954,-1.2554163075020448,-0.1228039016857171,-1.9751275481873627,1,1,0
11,1,39,2,107_graze_scream.png,1.55,109_kp_roast.png,2.3,0,3513,66,2712,2.0,-533,1753,1220,2,1,0.7499999999999998,1.210307295689817,0.7499999999999998,0.6822025149253115,-0.4649763288911991,0.21520053735589206,2.17,2.83,5.0,7.83,3.85,2.83,5.0,1.55,2.3,1,91.67,86.67,91.67,91.67,1.1590823085939563,0.11564863209722395,1.3544581010870018,0.12880559444423215,1.7838378510344866,-0.7052308338586638,0.8543047284543455,-0.38915514287252345,-0.6408039602583012,0.6408039602583012,1.1590823085939563,0.11870091417416707,1.8144282595194456,-0.6789768062053708,0.8526028917838576,0.7113672860358228,-0.5357050668167278,0.7113672860358247,0.1840061738685895,0,0,0
12,1,42,41,11_lindt_orange.png,2.0,59_crunchie.png,1.7,0,3371,78,2463,1.0,-1516,2200,684,2,1,-0.30000000000000004,-0.4841229182759271,0.30000000000000004,-0.5708225124885274,0.4325651102553511,0.1258101502136067,0.25,4.75,5.0,9.75,3.7,4.75,5.0,2.0,1.7,1,86.67,96.67,81.67,96.67,0.13353482817902726,1.0182721021243657,1.1168338728261231,1.1592503499981108,0.4438657563606913,0.6719373156606362,0.8543047284543455,-0.38915514287252345,-2.2413891284298426,2.2413891284298426,0.13353482817902726,1.136137321381335,0.4578463832432223,0.6761536178219639,0.8526028917838576,0.2942816921750516,0.9037174145539066,-0.1228039016857171,0.903717414553907,1,1,0
13,1,45,5,113_walkers_cheese.png,2.0,32_snickers.png,2.3,1,1889,70,1681,1.0,-88,778,690,1,2,0.2999999999999998,0.4841229182759267,0.2999999999999998,-0.5708225124885281,-0.16579584917568232,-0.8071233268629213,0.67,4.33,5.0,9.33,4.3,5.0,4.33,2.3,2.0,1,91.67,86.67,91.67,91.67,0.35787333951979305,0.8208232180559283,2.067330785869637,1.8462135203673635,1.113851803697589,0.851256085129295,0.3886520375779001,-1.1363330171877684,0.0837742694836478,0.0837742694836478,0.35787333951979305,1.136137321381335,1.8144282595194456,0.3797188375659845,0.8526028917838576,0.7113672860358228,-0.5357050668167278,0.7113672860358247,0.1840061738685895,0,0,1
14,1,46,3,108_chilli_nuts.png,1.7,41_jelly_babies_berry_mix.png,1.85,1,2227,74,1989,1.0,400,656,1056,1,2,0.15000000000000013,0.2420614591379637,0.15000000000000013,-0.9884975216264741,0.1333846305398344,-0.5943490250735377,1.25,3.33,4.58,7.91,3.55,4.58,3.33,1.85,1.7,1,81.67,81.67,81.67,76.67,0.6676741408951362,0.15325794334835488,0.8792096445652439,0.8157687648134849,0.4438657563606913,0.5500005524219482,-0.30635197865560043,-1.1363330171877684,0.8783679236725718,0.8783679236725718,0.6676741408951362,0.4578463832432229,0.7969918523122785,-0.3260782582815857,0.5561681115278784,-0.12280390168571954,-1.2554163075020448,-0.1228039016857171,-1.9751275481873627,0,0,1
15,1,57,4,44_walkers_french_fries.png,2.0,111_propercorn_sweetnsalty.png,2.0,1,6932,60,2057,1.0,-989,3262,2273,7,2,0.0,1.0451085762029443e-17,0.0,-1.4061725307644208,-0.9137470484644742,2.3674944362254258,0.67,4.33,5.0,9.33,4.0,5.0,4.33,2.0,2.0,1,86.67,81.67,96.67,100.0,0.35787333951979305,0.8208232180559283,1.5920823293478803,1.1592503499981108,1.113851803697589,0.851256085129295,0.3886520375779001,3.3467342287037005,-1.3832931125331973,1.3832931125331973,0.35787333951979305,1.136137321381335,1.1361373213813344,0.3797188375659845,0.8526028917838576,0.2942816921750516,-1.2554163075020448,1.1284528798965956,1.3830451008503282,0,1,0
16,1,62,47,51_smarties.png,1.7,34_hobnob_flapjack.png,1.55,0,4513,52,1855,1.0,-1371,2589,1218,4,1,-0.1499999999999999,-0.2420614591379633,0.1499999999999999,-0.9884975216264744,-1.5121080078955076,0.8447103059635359,-3.92,5.0,1.08,6.08,3.25,5.0,1.08,1.7,1.55,1,71.67,100.0,66.67,86.67,-2.093826105847147,-0.7070550515212645,0.4039611880434867,0.4722871796288583,0.10887273269224257,0.851256085129295,-1.8701110151809768,1.1052006057579662,-2.005290604131904,2.005290604131904,2.093826105847147,0.4578463832432229,0.11870091417416655,0.8526028917838565,-1.914121723938616,-0.9569750894072618,1.3830451008503275,-1.3740606832680298,-0.5357050668167279,0,1,0
17,1,63,43,103_nakd_berry.png,1.85,35_mms_plain.png,2.0,1,2110,72,1571,1.0,427,608,1035,1,2,0.1499999999999999,0.2420614591379633,0.1499999999999999,-0.9884975216264744,-0.016205609317923964,-0.6680016680006321,2.25,2.58,4.83,7.41,3.85,4.83,2.58,2.0,1.85,1,91.67,86.67,96.67,100.0,1.2018134536112453,-0.08180025197121323,1.3544581010870018,1.1592503499981108,0.7788587800291404,0.729319321890607,-0.8276049908307258,-1.1363330171877684,0.9223310971625328,0.9223310971625328,1.2018134536112453,0.7969918523122793,1.1361373213813344,-0.8554260801672634,0.7326173854897708,0.7113672860358228,-0.5357050668167278,1.1284528798965956,1.3830451008503282,0,0,1
18,1,66,42,63_kitkat.png,1.85,19_pistachios.png,1.7,0,2136,82,3149,1.0,-146,934,788,2,1,-0.15000000000000013,-0.2420614591379637,0.15000000000000013,-0.9884975216264741,0.7317455899708678,-0.6516344140168333,-0.67,5.0,4.33,9.33,3.55,5.0,4.33,1.85,1.7,1,96.67,96.67,71.67,96.67,-0.35787333951979305,0.8208232180559283,0.8792096445652439,0.8157687648134849,0.4438657563606913,0.851256085129295,0.3886520375779001,-0.38915514287252345,-0.010665140235527584,0.010665140235527584,0.35787333951979305,0.7969918523122793,0.4578463832432223,0.8526028917838565,0.3797188375659859,1.1284528798965938,0.9037174145539066,-0.9569750894072591,0.903717414553907,1,1,0
19,1,71,2,107_graze_scream.png,1.55,109_kp_roast.png,2.3,1,1916,90,3352,1.0,284,620,904,1,2,0.7499999999999998,1.210307295689817,0.7499999999999998,0.6822025149253115,1.3301065494019009,-0.790126563110515,2.17,2.83,5.0,7.83,3.85,5.0,2.83,2.3,1.55,1,91.67,86.67,91.67,91.67,1.1590823085939563,0.11564863209722395,1.3544581010870018,1.8462135203673635,0.10887273269224257,0.851256085129295,-0.6538539867723507,-1.1363330171877684,0.6894891042342209,0.6894891042342209,1.1590823085939563,0.11870091417416707,1.8144282595194456,-0.6789768062053708,0.8526028917838576,0.7113672860358228,-0.5357050668167278,0.7113672860358247,0.1840061738685895,1,0,1
20,1,75,45,51_smarties.png,1.7,43_mccoys_steak_crisps.png,2.0,1,7377,48,3060,1.0,-1097,3619,2522,4,1,0.30000000000000004,0.4841229182759271,0.30000000000000004,-0.5708225124885274,-1.811288487611024,2.6476262832558275,0.0,5.0,5.0,10.0,3.7,5.0,5.0,2.0,1.7,1,71.67,100.0,91.67,100.0,-7.906850177798411e-18,1.1358011997841495,1.1168338728261231,1.1592503499981108,0.4438657563606913,0.851256085129295,0.8543047284543455,1.1052006057579662,-1.559145806493041,1.559145806493041,7.906850177798411e-18,0.4578463832432229,1.1361373213813344,0.8526028917838565,0.8526028917838576,-0.9569750894072618,1.3830451008503275,0.7113672860358247,1.3830451008503282,0,1,0
21,1,76,44,102_propercorn_worcester.png,2.3,26_yorkie.png,1.7,0,2921,62,2942,1.0,-120,1282,1162,2,1,-0.5999999999999999,-0.9682458365518538,0.5999999999999999,0.2645275057873652,-0.7641568086067158,-0.15746924565983295,-1.25,4.83,3.58,8.41,4.0,4.83,3.58,2.3,1.7,1,81.67,91.67,81.67,81.67,-0.6676741408951362,0.38831613866792297,1.5920823293478803,1.8462135203673635,0.4438657563606913,0.729319321890607,-0.13260097459722528,-0.38915514287252345,0.03166976756962,0.03166976756962,0.6676741408951362,1.8144282595194468,0.4578463832432223,0.7326173854897696,-0.14962898431969152,-0.12280390168571954,0.18400617386858945,-0.1228039016857171,-1.2554163075020452,0,1,0
22,1,77,12,64_nestle_aero_mint.png,1.55,102_propercorn_worcester.png,2.3,0,6398,54,4096,1.0,-1078,3234,2156,4,1,0.7499999999999998,1.210307295689817,0.7499999999999998,0.6822025149253115,-1.3625177680377492,2.0313362197889444,-0.17,5.0,4.83,9.83,3.85,5.0,4.83,1.55,2.3,0,96.67,96.67,81.67,91.67,-0.09080368316173856,1.0558814133754963,1.3544581010870018,0.12880559444423215,1.7838378510344866,0.851256085129295,0.7361540456946504,1.1052006057579662,-1.5282087584815869,1.5282087584815869,0.09080368316173856,0.11870091417416707,1.8144282595194456,0.8526028917838565,0.7326173854897708,1.1284528798965938,0.9037174145539066,-0.1228039016857171,0.1840061738685895,0,1,0
23,1,79,1,62_cadbury_wispa.png,1.55,47_daim.png,1.7,0,4737,76,2358,1.0,-573,2273,1700,4,1,0.1499999999999999,0.2420614591379633,0.1499999999999999,-0.9884975216264744,0.2829748703975928,0.985720494131648,0.5,3.33,3.83,7.16,3.25,3.33,3.83,1.55,1.7,0,86.67,81.67,91.67,81.67,0.2670696563580545,-0.19932934963099727,0.4039611880434867,0.12880559444423215,0.4438657563606913,-0.34659329492134605,0.04115002946114985,1.1052006057579662,-0.7059345876508359,0.7059345876508359,0.2670696563580545,0.11870091417416707,0.4578463832432223,-0.3260782582815857,0.026820289642200942,0.2942816921750516,-1.2554163075020448,0.7113672860358247,-1.2554163075020452,0,1,0
24,1,86,4,111_propercorn_sweetnsalty.png,2.0,44_walkers_french_fries.png,2.0,0,3452,84,2307,2.0,-825,1857,1032,4,1,0.0,1.0451085762029443e-17,0.0,-1.4061725307644208,0.8813358298286262,0.17680044147082585,-0.67,5.0,4.33,9.33,4.0,5.0,4.33,2.0,2.0,1,96.67,100.0,86.67,81.67,-0.35787333951979305,0.8208232180559283,1.5920823293478803,1.1592503499981108,1.113851803697589,0.851256085129295,0.3886520375779001,1.1052006057579662,-1.1162575402238049,1.1162575402238049,0.35787333951979305,1.136137321381335,1.1361373213813344,0.8526028917838565,0.3797188375659859,1.1284528798965938,1.3830451008503275,0.2942816921750538,-1.2554163075020452,1,1,0
25,1,87,55,45_gb_ginger.png,2.0,23_kp_grazing_mix.png,1.55,1,3961,78,1829,2.0,403,1484,1887,3,2,-0.45,-0.7261843774138904,0.45,-0.15314750335058114,0.4325651102553511,0.4972209136921165,-2.25,4.83,2.58,7.41,3.55,2.58,4.83,1.55,2.0,1,91.67,96.67,66.67,86.67,-1.2018134536112453,-0.08180025197121323,0.8792096445652439,0.12880559444423215,1.113851803697589,-0.8845496033273226,0.7361540456946504,0.3580227314427213,0.8832527207270119,0.8832527207270119,1.2018134536112453,1.136137321381335,0.11870091417416655,0.7326173854897696,-0.8554260801672614,0.7113672860358228,0.9037174145539066,-1.3740606832680298,-0.5357050668167279,1,1,1
26,1,91,5,32_snickers.png,2.3,113_walkers_cheese.png,2.0,1,4336,52,3990,2.0,-151,1932,1781,5,2,-0.2999999999999998,-0.4841229182759267,0.2999999999999998,-0.5708225124885281,-1.5121080078955076,0.7332870769199828,-0.67,5.0,4.33,9.33,4.3,4.33,5.0,2.0,2.3,1,91.67,91.67,91.67,86.67,-0.35787333951979305,0.8208232180559283,2.067330785869637,1.1592503499981108,1.7838378510344866,0.37068178295328935,0.8543047284543455,1.8523784800732108,-0.018806468659594427,0.018806468659594427,0.35787333951979305,1.8144282595194468,1.1361373213813344,0.8526028917838565,0.3797188375659859,0.7113672860358228,0.18400617386858945,0.7113672860358247,-0.5357050668167279,0,1,0
27,1,94,2,109_kp_roast.png,2.3,107_graze_scream.png,1.55,1,3389,66,2600,2.0,248,1312,1560,3,2,-0.7499999999999998,-1.210307295689817,0.7499999999999998,0.6822025149253115,-0.4649763288911991,0.1371413260485443,-2.17,5.0,2.83,7.83,3.85,2.83,5.0,1.55,2.3,1,91.67,91.67,91.67,86.67,-1.1590823085939563,0.11564863209722395,1.3544581010870018,0.12880559444423215,1.7838378510344866,-0.7052308338586638,0.8543047284543455,0.3580227314427213,0.6308715395809397,0.6308715395809397,1.1590823085939563,1.8144282595194468,0.11870091417416655,0.8526028917838565,-0.6789768062053689,0.7113672860358228,0.18400617386858945,0.7113672860358247,-0.5357050668167279,0,1,1
28,1,95,25,52_discos_salt_vinegar.png,1.7,45_gb_ginger.png,2.0,0,2339,70,2130,2.0,-107,1003,896,2,1,0.30000000000000004,0.4841229182759271,0.30000000000000004,-0.5708225124885274,-0.16579584917568232,-0.5238439309894817,0.25,4.58,4.83,9.41,3.7,4.58,4.83,1.7,2.0,1,71.67,91.67,91.67,96.67,0.13353482817902726,0.8584325293070593,1.1168338728261231,0.4722871796288583,1.113851803697589,0.5500005524219482,0.7361540456946504,-0.38915514287252345,0.0528372214721938,0.0528372214721938,0.13353482817902726,0.4578463832432229,1.1361373213813344,0.556168111527877,0.7326173854897708,-0.9569750894072618,0.18400617386858945,0.7113672860358247,0.903717414553907,1,0,0
29,1,96,24,112_lindt_extra_creamy.png,1.85,24_twix.png,1.85,0,3609,54,1947,2.0,-1228,2118,890,4,1,0.0,1.0451085762029443e-17,0.0,-1.4061725307644208,-1.3625177680377492,0.2756334751422259,0.92,4.08,5.0,9.08,3.7,4.08,5.0,1.85,1.85,1,86.67,81.67,76.67,96.67,0.4914081676988203,0.7032941203961443,1.1168338728261231,0.8157687648134849,0.7788587800291404,0.19136301348463047,0.8543047284543455,1.1052006057579662,-1.7724486112035924,1.7724486112035924,0.4914081676988203,0.7969918523122793,0.7969918523122785,0.20326956360409196,0.8526028917838576,0.2942816921750516,-1.2554163075020448,-0.5398894955464879,0.903717414553907,0,1,0
30,1,97,12,102_propercorn_worcester.png,2.3,64_nestle_aero_mint.png,1.55,1,7371,40,1335,2.0,-986,3730,2744,7,2,-0.7499999999999998,-1.210307295689817,0.7499999999999998,0.6822025149253115,-2.409649447042058,2.6438492246441814,0.17,4.83,5.0,9.83,3.85,5.0,4.83,1.55,2.3,1,81.67,91.67,96.67,96.67,0.09080368316173852,1.0558814133754963,1.3544581010870018,0.12880559444423215,1.7838378510344866,0.851256085129295,0.7361540456946504,3.3467342287037005,-1.3784083154787572,1.3784083154787572,0.09080368316173852,1.8144282595194468,0.11870091417416655,0.7326173854897696,0.8526028917838576,-0.12280390168571954,0.18400617386858945,1.1284528798965956,0.903717414553907,0,1,0
31,1,98,21,42_dairy_milk_fruit_and_nut.png,1.55,10_hula_hoops_bbq_beef.png,2.0,0,2520,58,1447,2.0,-889,1603,714,2,1,0.45,0.7261843774138904,0.45,-0.15314750335058114,-1.0633372883222325,-0.4099026628714981,0.67,4.33,5.0,9.33,3.55,4.33,5.0,1.55,2.0,1,91.67,91.67,96.67,100.0,0.35787333951979305,0.8208232180559283,0.8792096445652439,0.12880559444423215,1.113851803697589,0.37068178295328935,0.8543047284543455,-0.38915514287252345,-1.2204665440518605,1.2204665440518605,0.35787333951979305,0.11870091417416707,1.1361373213813344,0.3797188375659845,0.8526028917838576,0.7113672860358228,0.18400617386858945,1.1284528798965956,1.3830451008503282,0,0,0
32,1,100,3,41_jelly_babies_berry_mix.png,1.85,108_chilli_nuts.png,1.7,1,2593,78,1573,2.0,1099,552,1651,1,2,-0.15000000000000013,-0.2420614591379637,0.15000000000000013,-0.9884975216264741,0.4325651102553511,-0.3639484497631401,-1.25,4.58,3.33,7.91,3.55,3.33,4.58,1.7,1.85,1,81.67,76.67,81.67,81.67,-0.6676741408951362,0.15325794334835488,0.8792096445652439,0.4722871796288583,0.7788587800291404,-0.34659329492134605,0.5624030416362753,-1.1363330171877684,2.0165256373571165,2.0165256373571165,0.6676741408951362,0.7969918523122793,0.4578463832432223,0.556168111527877,-0.326078258281584,-0.12280390168571954,-1.9751275481873625,-0.1228039016857171,-1.2554163075020452,1,0,1
33,1,112,53,107_graze_scream.png,1.55,54_milkyway_magic_stars.png,1.55,0,1943,72,3236,2.0,-327,925,598,2,1,0.0,1.0451085762029443e-17,0.0,-1.4061725307644208,-0.016205609317923964,-0.7731297993581085,2.17,2.83,5.0,7.83,3.1,2.83,5.0,1.55,1.55,1,91.67,86.67,86.67,100.0,1.1590823085939563,0.11564863209722395,0.16633695978260807,0.12880559444423215,0.10887273269224257,-0.7052308338586638,0.8543047284543455,-0.38915514287252345,-0.3053812291867473,0.3053812291867473,1.1590823085939563,0.11870091417416707,0.11870091417416655,-0.6789768062053708,0.8526028917838576,0.7113672860358228,-0.5357050668167278,0.2942816921750538,1.3830451008503282,1,0,0
34,1,113,22,15_jacobs_mini_cheddars.png,1.85,31_beef_jerky.png,2.0,0,3627,72,2388,2.0,-857,1929,1072,4,1,0.1499999999999999,0.2420614591379633,0.1499999999999999,-0.9884975216264744,-0.016205609317923964,0.2869646509771635,0.0,4.83,4.83,9.66,3.85,4.83,4.83,1.85,2.0,1,91.67,96.67,96.67,96.67,-7.906850177798411e-18,0.9759616269668432,1.3544581010870018,0.8157687648134849,1.113851803697589,0.729319321890607,0.7361540456946504,1.1052006057579662,-1.168362042137833,1.168362042137833,7.906850177798411e-18,0.7969918523122793,1.1361373213813344,0.7326173854897696,0.7326173854897708,0.7113672860358228,0.9037174145539066,1.1284528798965956,0.903717414553907,1,1,0
35,1,114,1,47_daim.png,1.7,62_cadbury_wispa.png,1.55,0,6245,36,2173,2.0,-894,3118,2224,6,1,-0.1499999999999999,-0.2420614591379633,0.1499999999999999,-0.9884975216264744,-2.7088299267575744,1.9350212251919752,-0.5,3.83,3.33,7.16,3.25,3.83,3.33,1.7,1.55,0,91.67,81.67,86.67,81.67,-0.2670696563580545,-0.19932934963099727,0.4039611880434867,0.4722871796288583,0.10887273269224257,0.012044244015971631,-0.30635197865560043,2.599556354388456,-1.2286078724759273,1.2286078724759273,0.2670696563580545,0.4578463832432229,0.11870091417416655,0.026820289642199385,-0.326078258281584,0.7113672860358228,-1.2554163075020448,0.2942816921750538,-1.2554163075020452,0,1,0
36,1,115,23,14_maltesers.png,1.85,33_walkers_smoky_bacon.png,1.55,1,4574,62,2994,2.0,-1204,2580,1376,3,2,-0.30000000000000004,-0.4841229182759271,0.30000000000000004,-0.5708225124885274,-0.7641568086067158,0.8831104018486021,-1.17,5.0,3.83,8.83,3.4,3.83,5.0,1.55,1.85,1,91.67,86.67,71.67,86.67,-0.6249429958778474,0.5857650227363602,0.6415854163043653,0.12880559444423215,0.7788587800291404,0.012044244015971631,0.8543047284543455,0.3580227314427213,-1.7333702347680715,1.7333702347680715,0.6249429958778474,0.7969918523122793,0.11870091417416655,0.8526028917838565,0.026820289642200942,0.7113672860358228,-0.5357050668167278,-0.9569750894072591,-0.5357050668167279,0,1,0
37,1,121,24,112_lindt_extra_creamy.png,1.85,24_twix.png,1.85,1,3454,58,1357,1.0,404,916,1320,3,2,0.0,1.0451085762029443e-17,0.0,-1.4061725307644208,-1.0633372883222325,0.17805946100804115,0.92,4.08,5.0,9.08,3.7,5.0,4.08,1.85,1.85,1,86.67,81.67,76.67,96.67,0.4914081676988203,0.7032941203961443,1.1168338728261231,0.8157687648134849,0.7788587800291404,0.851256085129295,0.214901033519525,0.3580227314427213,0.8848809864118252,0.8848809864118252,0.4914081676988203,0.7969918523122793,0.7969918523122785,0.20326956360409196,0.8526028917838576,0.2942816921750516,-1.2554163075020448,-0.5398894955464879,0.903717414553907,0,1,1
38,1,122,1,47_daim.png,1.7,62_cadbury_wispa.png,1.55,1,2478,60,2166,1.0,195,902,1097,4,2,-0.1499999999999999,-0.2420614591379633,0.1499999999999999,-0.9884975216264744,-0.9137470484644742,-0.4363420731530192,-0.5,3.83,3.33,7.16,3.25,3.33,3.83,1.55,1.7,0,91.67,81.67,86.67,81.67,-0.2670696563580545,-0.19932934963099727,0.4039611880434867,0.12880559444423215,0.4438657563606913,-0.34659329492134605,0.04115002946114985,1.1052006057579662,0.5445734582858311,0.5445734582858311,0.2670696563580545,0.4578463832432229,0.11870091417416655,0.026820289642199385,-0.326078258281584,0.7113672860358228,-1.2554163075020448,0.2942816921750538,-1.2554163075020452,0,1,1
39,1,124,3,41_jelly_babies_berry_mix.png,1.85,108_chilli_nuts.png,1.7,0,2014,74,1177,1.0,-267,943,676,2,1,-0.15000000000000013,-0.2420614591379637,0.15000000000000013,-0.9884975216264741,0.1333846305398344,-0.7284346057869658,-1.25,4.58,3.33,7.91,3.55,4.58,3.33,1.85,1.7,1,81.67,76.67,81.67,81.67,-0.6676741408951362,0.15325794334835488,0.8792096445652439,0.8157687648134849,0.4438657563606913,0.5500005524219482,-0.30635197865560043,-0.38915514287252345,-0.2076852880979452,0.2076852880979452,0.6676741408951362,0.7969918523122793,0.4578463832432223,0.556168111527877,-0.326078258281584,-0.12280390168571954,-1.9751275481873625,-0.1228039016857171,-1.2554163075020452,0,1,0
40,1,129,5,32_snickers.png,2.3,113_walkers_cheese.png,2.0,0,1467,92,2002,1.0,-118,568,450,3,1,-0.2999999999999998,-0.4841229182759267,0.2999999999999998,-0.5708225124885281,1.4796967892596598,-1.072776449215347,-0.67,5.0,4.33,9.33,4.3,5.0,4.33,2.3,2.0,1,91.67,91.67,91.67,86.67,-0.35787333951979305,0.8208232180559283,2.067330785869637,1.8462135203673635,1.113851803697589,0.851256085129295,0.3886520375779001,0.3580227314427213,0.03492629893924674,0.03492629893924674,0.35787333951979305,1.8144282595194468,1.1361373213813344,0.8526028917838565,0.3797188375659859,0.7113672860358228,0.18400617386858945,0.7113672860358247,-0.5357050668167279,1,1,0
41,1,133,12,102_propercorn_worcester.png,2.3,64_nestle_aero_mint.png,1.55,1,5621,46,1895,1.0,-133,2386,2253,6,2,-0.7499999999999998,-1.210307295689817,0.7499999999999998,0.6822025149253115,-1.9608787274687833,1.542207129580805,0.17,4.83,5.0,9.83,3.85,5.0,4.83,1.55,2.3,0,81.67,91.67,96.67,96.67,0.09080368316173852,1.0558814133754963,1.3544581010870018,0.12880559444423215,1.7838378510344866,0.851256085129295,0.7361540456946504,2.599556354388456,0.01050231366704621,0.01050231366704621,0.09080368316173852,1.8144282595194468,0.11870091417416655,0.7326173854897696,0.8526028917838576,-0.12280390168571954,0.18400617386858945,1.1284528798965956,0.903717414553907,0,1,0
42,1,139,23,14_maltesers.png,1.85,33_walkers_smoky_bacon.png,1.55,0,2037,70,1694,1.0,-350,986,636,2,1,-0.30000000000000004,-0.4841229182759271,0.30000000000000004,-0.5708225124885274,-0.16579584917568232,-0.7139558811089901,-1.17,5.0,3.83,8.83,3.4,5.0,3.83,1.85,1.55,1,91.67,86.67,71.67,86.67,-0.6249429958778474,0.5857650227363602,0.6415854163043653,0.8157687648134849,0.10887273269224257,0.851256085129295,0.04115002946114985,-0.38915514287252345,-0.3428313399374548,0.3428313399374548,0.6249429958778474,0.7969918523122793,0.11870091417416655,0.8526028917838565,0.026820289642200942,0.7113672860358228,-0.5357050668167278,-0.9569750894072591,-0.5357050668167279,0,0,0
43,1,140,22,15_jacobs_mini_cheddars.png,1.85,31_beef_jerky.png,2.0,1,3620,76,1704,1.0,11,1436,1447,3,2,0.1499999999999999,0.2420614591379633,0.1499999999999999,-0.9884975216264744,0.2829748703975928,0.28255808259690995,0.0,4.83,4.83,9.66,3.85,4.83,4.83,2.0,1.85,1,91.67,96.67,96.67,96.67,-7.906850177798411e-18,0.9759616269668432,1.3544581010870018,1.1592503499981108,0.7788587800291404,0.729319321890607,0.7361540456946504,0.3580227314427213,0.2449725722801713,0.2449725722801713,7.906850177798411e-18,0.7969918523122793,1.1361373213813344,0.7326173854897696,0.7326173854897708,0.7113672860358228,0.9037174145539066,1.1284528798965956,0.903717414553907,0,1,1
44,1,146,53,107_graze_scream.png,1.55,54_milkyway_magic_stars.png,1.55,1,1583,90,587,1.0,124,540,664,1,2,0.0,1.0451085762029443e-17,0.0,-1.4061725307644208,1.3301065494019009,-0.9997533160568604,2.17,2.83,5.0,7.83,3.1,5.0,2.83,1.55,1.55,1,91.67,86.67,86.67,100.0,1.1590823085939563,0.11564863209722395,0.16633695978260807,0.12880559444423215,0.10887273269224257,0.851256085129295,-0.6538539867723507,-1.1363330171877684,0.4289665946640819,0.4289665946640819,1.1590823085939563,0.11870091417416707,0.11870091417416655,-0.6789768062053708,0.8526028917838576,0.7113672860358228,-0.5357050668167278,0.2942816921750538,1.3830451008503282,1,0,1
45,1,151,21,42_dairy_milk_fruit_and_nut.png,1.55,10_hula_hoops_bbq_beef.png,2.0,1,3167,70,2147,1.0,-16,1268,1252,3,2,0.45,0.7261843774138904,0.45,-0.15314750335058114,-0.16579584917568232,-0.0026098425823526178,0.67,4.33,5.0,9.33,3.55,5.0,4.33,2.0,1.55,1,91.67,91.67,96.67,100.0,0.35787333951979305,0.8208232180559283,0.8792096445652439,1.1592503499981108,0.10887273269224257,0.851256085129295,0.3886520375779001,0.3580227314427213,0.20100939879021035,0.20100939879021035,0.35787333951979305,0.11870091417416707,1.1361373213813344,0.3797188375659845,0.8526028917838576,0.7113672860358228,0.18400617386858945,1.1284528798965956,1.3830451008503282,0,1,1
46,1,153,25,52_discos_salt_vinegar.png,1.7,45_gb_ginger.png,2.0,1,1655,96,792,1.0,206,518,724,1,2,0.30000000000000004,0.4841229182759271,0.30000000000000004,-0.5708225124885274,1.7788772689751764,-0.95442861271711,0.25,4.58,4.83,9.41,3.7,4.83,4.58,2.0,1.7,1,71.67,91.67,91.67,96.67,0.13353482817902726,0.8584325293070593,1.1168338728261231,1.1592503499981108,0.4438657563606913,0.729319321890607,0.5624030416362753,-1.1363330171877684,0.5624843808187782,0.5624843808187782,0.13353482817902726,0.4578463832432229,1.1361373213813344,0.556168111527877,0.7326173854897708,-0.9569750894072618,0.18400617386858945,0.7113672860358247,0.903717414553907,1,0,1
47,1,156,4,111_propercorn_sweetnsalty.png,2.0,44_walkers_french_fries.png,2.0,1,3613,68,1735,1.0,-1,1596,1595,4,2,0.0,1.0451085762029443e-17,0.0,-1.4061725307644208,-0.3153860890334407,0.2781515142166565,-0.67,5.0,4.33,9.33,4.0,4.33,5.0,2.0,2.0,1,96.67,100.0,86.67,81.67,-0.35787333951979305,0.8208232180559283,1.5920823293478803,1.1592503499981108,1.113851803697589,0.37068178295328935,0.8543047284543455,1.1052006057579662,0.2254333840624109,0.2254333840624109,0.35787333951979305,1.136137321381335,1.1361373213813344,0.8526028917838565,0.3797188375659859,1.1284528798965938,1.3830451008503275,0.2942816921750538,-1.2554163075020452,0,1,1
48,1,157,2,109_kp_roast.png,2.3,107_graze_scream.png,1.55,0,1854,84,1447,1.0,-151,789,638,2,1,-0.7499999999999998,-1.210307295689817,0.7499999999999998,0.6822025149253115,0.8813358298286262,-0.8291561687641889,-2.17,5.0,2.83,7.83,3.85,5.0,2.83,2.3,1.55,1,91.67,91.67,91.67,86.67,-1.1590823085939563,0.11564863209722395,1.3544581010870018,1.8462135203673635,0.10887273269224257,0.851256085129295,-0.6538539867723507,-0.38915514287252345,-0.018806468659594427,0.018806468659594427,1.1590823085939563,1.8144282595194468,0.11870091417416655,0.8526028917838565,-0.6789768062053689,0.7113672860358228,0.18400617386858945,0.7113672860358247,-0.5357050668167279,1,0,0
49,1,158,55,45_gb_ginger.png,2.0,23_kp_grazing_mix.png,1.55,0,1999,68,2203,1.0,-254,916,662,2,1,-0.45,-0.7261843774138904,0.45,-0.15314750335058114,-0.3153860890334407,-0.7378772523160805,-2.25,4.83,2.58,7.41,3.55,4.83,2.58,2.0,1.55,1,91.67,96.67,66.67,86.67,-1.2018134536112453,-0.08180025197121323,0.8792096445652439,1.1592503499981108,0.10887273269224257,0.729319321890607,-0.8276049908307258,-0.38915514287252345,-0.1865178341953714,0.1865178341953714,1.2018134536112453,1.136137321381335,0.11870091417416655,0.7326173854897696,-0.8554260801672614,0.7113672860358228,0.9037174145539066,-1.3740606832680298,-0.5357050668167279,0,0,0
50,1,162,24,24_twix.png,1.85,112_lindt_extra_creamy.png,1.85,1,1712,64,1959,2.0,184,556,740,1,2,0.0,1.0451085762029443e-17,0.0,-1.4061725307644208,-0.6145665687489574,-0.9185465559064744,-0.92,5.0,4.08,9.08,3.7,4.08,5.0,1.85,1.85,1,76.67,96.67,86.67,81.67,-0.4914081676988203,0.7032941203961443,1.1168338728261231,0.8157687648134849,0.7788587800291404,0.19136301348463047,0.8543047284543455,-1.1363330171877684,0.526662535752884,0.526662535752884,0.4914081676988203,0.7969918523122793,0.7969918523122785,0.8526028917838565,0.2032695636040934,-0.5398894955464907,0.9037174145539066,0.2942816921750538,-1.2554163075020452,0,0,1
51,1,163,47,34_hobnob_flapjack.png,1.55,51_smarties.png,1.7,0,2040,54,2211,2.0,-125,859,734,2,1,0.1499999999999999,0.2420614591379633,0.1499999999999999,-0.9884975216264744,-1.3625177680377492,-0.7120673518031672,3.92,1.08,5.0,6.08,3.25,1.08,5.0,1.55,1.7,1,66.67,86.67,71.67,100.0,2.093826105847147,-0.7070550515212645,0.4039611880434867,0.12880559444423215,0.4438657563606913,-1.960462220139276,0.8543047284543455,-0.38915514287252345,0.023528439145553158,0.023528439145553158,2.093826105847147,0.11870091417416707,0.4578463832432223,-1.9141217239386188,0.8526028917838576,-1.3740606832680329,-0.5357050668167278,-0.9569750894072591,1.3830451008503282,0,0,0
52,1,164,22,31_beef_jerky.png,2.0,15_jacobs_mini_cheddars.png,1.85,1,2372,56,1728,2.0,262,846,1108,3,2,-0.1499999999999999,-0.2420614591379633,0.1499999999999999,-0.9884975216264744,-1.212927528179991,-0.5030701086254294,0.0,4.83,4.83,9.66,3.85,4.83,4.83,1.85,2.0,1,96.67,96.67,91.67,96.67,-7.906850177798411e-18,0.9759616269668432,1.3544581010870018,0.8157687648134849,1.113851803697589,0.729319321890607,0.7361540456946504,0.3580227314427213,0.6536672591683268,0.6536672591683268,7.906850177798411e-18,1.136137321381335,0.7969918523122785,0.7326173854897696,0.7326173854897708,1.1284528798965938,0.9037174145539066,0.7113672860358247,0.903717414553907,0,1,1
53,1,165,45,43_mccoys_steak_crisps.png,2.0,51_smarties.png,1.7,0,4185,50,3388,2.0,-22,1808,1786,4,1,-0.30000000000000004,-0.4841229182759271,0.30000000000000004,-0.5708225124885274,-1.6616982477532658,0.6382311018602287,0.0,5.0,5.0,10.0,3.7,5.0,5.0,2.0,1.7,0,91.67,100.0,71.67,100.0,-7.906850177798411e-18,1.1358011997841495,1.1168338728261231,1.1592503499981108,0.4438657563606913,0.851256085129295,0.8543047284543455,1.1052006057579662,0.19123980468133006,0.19123980468133006,7.906850177798411e-18,1.136137321381335,0.4578463832432223,0.8526028917838565,0.8526028917838576,0.7113672860358228,1.3830451008503275,-0.9569750894072591,1.3830451008503282,0,1,1
54,1,172,53,54_milkyway_magic_stars.png,1.55,107_graze_scream.png,1.55,1,1564,78,1576,2.0,221,504,725,1,2,0.0,1.0451085762029443e-17,0.0,-1.4061725307644208,0.4325651102553511,-1.0117140016604056,-2.17,5.0,2.83,7.83,3.1,2.83,5.0,1.55,1.55,1,86.67,100.0,91.67,86.67,-1.1590823085939563,0.11564863209722395,0.16633695978260807,0.12880559444423215,0.10887273269224257,-0.7052308338586638,0.8543047284543455,-1.1363330171877684,0.5869083660909787,0.5869083660909787,1.1590823085939563,0.11870091417416707,0.11870091417416655,0.8526028917838565,-0.6789768062053689,0.2942816921750516,1.3830451008503275,0.7113672860358247,-0.5357050668167279,1,0,1
55,1,174,25,45_gb_ginger.png,2.0,52_discos_salt_vinegar.png,1.7,1,2987,66,1358,2.0,-156,1326,1170,3,2,-0.30000000000000004,-0.4841229182759271,0.30000000000000004,-0.5708225124885274,-0.4649763288911991,-0.1159216009317285,-0.25,4.83,4.58,9.41,3.7,4.58,4.83,1.7,2.0,1,91.67,96.67,71.67,91.67,-0.13353482817902726,0.8584325293070593,1.1168338728261231,0.4722871796288583,1.113851803697589,0.5500005524219482,0.7361540456946504,0.3580227314427213,-0.026947797083661268,0.026947797083661268,0.13353482817902726,1.136137321381335,0.4578463832432223,0.7326173854897696,0.5561681115278784,0.7113672860358228,0.9037174145539066,-0.9569750894072591,0.1840061738685895,0,1,0
56,1,175,41,59_crunchie.png,1.7,11_lindt_orange.png,2.0,0,3625,60,2051,2.0,-348,1730,1382,4,1,0.30000000000000004,0.4841229182759271,0.30000000000000004,-0.5708225124885274,-0.9137470484644742,0.2857056314399482,-0.25,5.0,4.75,9.75,3.7,5.0,4.75,1.7,2.0,1,81.67,96.67,86.67,96.67,-0.13353482817902726,1.0182721021243657,1.1168338728261231,0.4722871796288583,1.113851803697589,0.851256085129295,0.6805537243959703,1.1052006057579662,-0.3395748085678281,0.3395748085678281,0.13353482817902726,0.4578463832432229,1.1361373213813344,0.8526028917838565,0.6761536178219651,-0.12280390168571954,0.9037174145539066,0.2942816921750538,0.903717414553907,0,1,0
57,1,183,21,10_hula_hoops_bbq_beef.png,2.0,42_dairy_milk_fruit_and_nut.png,1.55,1,2918,54,2532,2.0,486,950,1436,3,2,-0.45,-0.7261843774138904,0.45,-0.15314750335058114,-1.3625177680377492,-0.15935777496565592,-0.67,5.0,4.33,9.33,3.55,4.33,5.0,1.55,2.0,1,96.67,100.0,91.67,91.67,-0.35787333951979305,0.8208232180559283,0.8792096445652439,0.12880559444423215,1.113851803697589,0.37068178295328935,0.8543047284543455,0.3580227314427213,1.0183987725665216,1.0183987725665216,0.35787333951979305,1.136137321381335,0.11870091417416655,0.8526028917838565,0.3797188375659859,1.1284528798965938,1.3830451008503275,0.7113672860358247,0.1840061738685895,0,1,1
58,1,184,43,35_mms_plain.png,2.0,103_nakd_berry.png,1.85,1,3706,40,1985,2.0,255,1582,1837,3,2,-0.1499999999999999,-0.2420614591379633,0.1499999999999999,-0.9884975216264744,-2.409649447042058,0.33669592269716736,-2.25,4.83,2.58,7.41,3.85,2.58,4.83,1.85,2.0,1,96.67,100.0,91.67,86.67,-1.2018134536112453,-0.08180025197121323,1.3544581010870018,0.8157687648134849,1.113851803697589,-0.8845496033273226,0.7361540456946504,0.3580227314427213,0.6422693993746332,0.6422693993746332,1.2018134536112453,1.136137321381335,0.7969918523122785,0.7326173854897696,-0.8554260801672614,1.1284528798965938,1.3830451008503275,0.7113672860358247,-0.5357050668167279,0,1,1
59,1,191,44,26_yorkie.png,1.7,102_propercorn_worcester.png,2.3,0,4189,58,3312,2.0,264,1700,1964,3,1,0.5999999999999999,0.9682458365518538,0.5999999999999999,0.2645275057873652,-1.0633372883222325,0.6407491409346593,1.25,3.58,4.83,8.41,4.0,3.58,4.83,1.7,2.3,1,81.67,81.67,81.67,91.67,0.6676741408951362,0.38831613866792297,1.5920823293478803,0.4722871796288583,1.7838378510344866,-0.16727452545268726,0.7361540456946504,0.3580227314427213,0.6569237905379536,0.6569237905379536,0.6676741408951362,0.4578463832432229,1.8144282595194456,-0.14962898431969315,0.7326173854897708,-0.12280390168571954,-1.2554163075020448,-0.1228039016857171,0.1840061738685895,0,1,1
60,1,192,42,19_pistachios.png,1.7,63_kitkat.png,1.85,0,2626,70,3155,2.0,-223,1046,823,4,2,0.15000000000000013,0.2420614591379637,0.15000000000000013,-0.9884975216264741,-0.16579584917568232,-0.3431746273990879,0.67,4.33,5.0,9.33,3.55,4.33,5.0,1.7,1.85,1,71.67,96.67,96.67,96.67,0.35787333951979305,0.8208232180559283,0.8792096445652439,0.4722871796288583,0.7788587800291404,0.37068178295328935,0.8543047284543455,1.1052006057579662,-0.13604159796615695,0.13604159796615695,0.35787333951979305,0.4578463832432229,0.7969918523122785,0.3797188375659845,0.8526028917838576,-0.9569750894072618,0.9037174145539066,1.1284528798965956,0.903717414553907,1,1,0
61,1,194,55,23_kp_grazing_mix.png,1.55,45_gb_ginger.png,2.0,0,2920,70,1445,2.0,-328,1372,1044,3,2,0.45,0.7261843774138904,0.45,-0.15314750335058114,-0.16579584917568232,-0.15809875542844062,2.25,2.58,4.83,7.41,3.55,2.58,4.83,1.55,2.0,1,66.67,86.67,91.67,96.67,1.2018134536112453,-0.08180025197121323,0.8792096445652439,0.12880559444423215,1.113851803697589,-0.8845496033273226,0.7361540456946504,0.3580227314427213,-0.30700949487156065,0.30700949487156065,1.2018134536112453,0.11870091417416707,1.1361373213813344,-0.8554260801672634,0.7326173854897708,-1.3740606832680329,-0.5357050668167278,0.7113672860358247,0.903717414553907,0,1,0
62,1,200,23,33_walkers_smoky_bacon.png,1.55,14_maltesers.png,1.85,0,2828,74,1462,2.0,-19,1166,1147,3,2,0.30000000000000004,0.4841229182759271,0.30000000000000004,-0.5708225124885274,0.1333846305398344,-0.21601365414034385,1.17,3.83,5.0,8.83,3.4,3.83,5.0,1.55,1.85,1,71.67,86.67,91.67,86.67,0.6249429958778474,0.5857650227363602,0.6415854163043653,0.12880559444423215,0.7788587800291404,0.012044244015971631,0.8543047284543455,0.3580227314427213,0.19612460173577026,0.19612460173577026,0.6249429958778474,0.11870091417416707,0.7969918523122785,0.026820289642199385,0.8526028917838576,-0.9569750894072618,-0.5357050668167278,0.7113672860358247,-0.5357050668167279,1,1,1
63,1,202,21,10_hula_hoops_bbq_beef.png,2.0,42_dairy_milk_fruit_and_nut.png,1.55,0,2263,76,2455,1.0,131,845,976,3,1,-0.45,-0.7261843774138904,0.45,-0.15314750335058114,0.2829748703975928,-0.5716866734036625,-0.67,5.0,4.33,9.33,3.55,5.0,4.33,2.0,1.55,1,96.67,100.0,91.67,91.67,-0.35787333951979305,0.8208232180559283,0.8792096445652439,1.1592503499981108,0.10887273269224257,0.851256085129295,0.3886520375779001,0.3580227314427213,0.4403644544577756,0.4403644544577756,0.35787333951979305,1.136137321381335,0.11870091417416655,0.8526028917838565,0.3797188375659859,1.1284528798965938,1.3830451008503275,0.7113672860358247,0.1840061738685895,0,1,1
64,1,205,47,34_hobnob_flapjack.png,1.55,51_smarties.png,1.7,1,2250,88,1017,1.0,56,862,918,3,2,0.1499999999999999,0.2420614591379633,0.1499999999999999,-0.9884975216264744,1.1805163095441429,-0.579870300395562,3.92,1.08,5.0,6.08,3.25,5.0,1.08,1.7,1.55,1,66.67,86.67,71.67,100.0,2.093826105847147,-0.7070550515212645,0.4039611880434867,0.4722871796288583,0.10887273269224257,0.851256085129295,-1.8701110151809768,0.3580227314427213,0.3182445280967729,0.3182445280967729,2.093826105847147,0.11870091417416707,0.4578463832432223,-1.9141217239386188,0.8526028917838576,-1.3740606832680329,-0.5357050668167278,-0.9569750894072591,1.3830451008503282,1,1,1
65,1,207,42,19_pistachios.png,1.7,63_kitkat.png,1.85,1,2098,82,2107,1.0,62,810,872,3,2,0.15000000000000013,0.2420614591379637,0.15000000000000013,-0.9884975216264741,0.7317455899708678,-0.6755557852239238,0.67,4.33,5.0,9.33,3.55,5.0,4.33,1.85,1.7,1,71.67,96.67,96.67,96.67,0.35787333951979305,0.8208232180559283,0.8792096445652439,0.8157687648134849,0.4438657563606913,0.851256085129295,0.3886520375779001,0.3580227314427213,0.3280141222056531,0.3280141222056531,0.35787333951979305,0.4578463832432229,0.7969918523122785,0.3797188375659845,0.8526028917838576,-0.9569750894072618,0.9037174145539066,1.1284528798965956,0.903717414553907,1,1,1
66,1,209,24,24_twix.png,1.85,112_lindt_extra_creamy.png,1.85,0,2002,88,1892,1.0,-151,873,722,2,1,0.0,1.0451085762029443e-17,0.0,-1.4061725307644208,1.1805163095441429,-0.7359887230102576,-0.92,5.0,4.08,9.08,3.7,5.0,4.08,1.85,1.85,1,76.67,96.67,86.67,81.67,-0.4914081676988203,0.7032941203961443,1.1168338728261231,0.8157687648134849,0.7788587800291404,0.851256085129295,0.214901033519525,-0.38915514287252345,-0.018806468659594427,0.018806468659594427,0.4914081676988203,0.7969918523122793,0.7969918523122785,0.8526028917838565,0.2032695636040934,-0.5398894955464907,0.9037174145539066,0.2942816921750538,-1.2554163075020452,1,0,0
67,1,212,23,33_walkers_smoky_bacon.png,1.55,14_maltesers.png,1.85,1,2085,84,1389,1.0,692,514,1206,1,2,0.30000000000000004,0.4841229182759271,0.30000000000000004,-0.5708225124885274,0.8813358298286262,-0.6837394122158231,1.17,3.83,5.0,8.83,3.4,5.0,3.83,1.85,1.55,1,71.67,86.67,91.67,86.67,0.6249429958778474,0.5857650227363602,0.6415854163043653,0.8157687648134849,0.10887273269224257,0.851256085129295,0.04115002946114985,-1.1363330171877684,1.3538215036380754,1.3538215036380754,0.6249429958778474,0.11870091417416707,0.7969918523122785,0.026820289642199385,0.8526028917838576,-0.9569750894072618,-0.5357050668167278,0.7113672860358247,-0.5357050668167279,1,0,1
68,1,213,55,23_kp_grazing_mix.png,1.55,45_gb_ginger.png,2.0,1,2755,88,1999,1.0,228,982,1210,3,2,0.45,0.7261843774138904,0.45,-0.15314750335058114,1.1805163095441429,-0.26196786724870186,2.25,2.58,4.83,7.41,3.55,4.83,2.58,2.0,1.55,1,66.67,86.67,91.67,96.67,1.2018134536112453,-0.08180025197121323,0.8792096445652439,1.1592503499981108,0.10887273269224257,0.729319321890607,-0.8276049908307258,0.3580227314427213,0.5983062258846723,0.5983062258846723,1.2018134536112453,0.11870091417416707,1.1361373213813344,-0.8554260801672634,0.7326173854897708,-1.3740606832680329,-0.5357050668167278,0.7113672860358247,0.903717414553907,1,1,1
69,1,214,22,31_beef_jerky.png,2.0,15_jacobs_mini_cheddars.png,1.85,0,2265,68,978,1.0,6,926,932,2,1,-0.1499999999999999,-0.2420614591379633,0.1499999999999999,-0.9884975216264744,-0.3153860890334407,-0.5704276538664473,0.0,4.83,4.83,9.66,3.85,4.83,4.83,2.0,1.85,1,96.67,96.67,91.67,96.67,-7.906850177798411e-18,0.9759616269668432,1.3544581010870018,1.1592503499981108,0.7788587800291404,0.729319321890607,0.7361540456946504,-0.38915514287252345,0.2368312438561045,0.2368312438561045,7.906850177798411e-18,1.136137321381335,0.7969918523122785,0.7326173854897696,0.7326173854897708,1.1284528798965938,0.9037174145539066,0.7113672860358247,0.903717414553907,0,0,1
70,1,219,43,35_mms_plain.png,2.0,103_nakd_berry.png,1.85,0,2106,82,2712,1.0,-436,1064,628,2,1,-0.1499999999999999,-0.2420614591379633,0.1499999999999999,-0.9884975216264744,0.7317455899708678,-0.6705197070750627,-2.25,4.83,2.58,7.41,3.85,4.83,2.58,2.0,1.85,1,96.67,100.0,91.67,86.67,-1.2018134536112453,-0.08180025197121323,1.3544581010870018,1.1592503499981108,0.7788587800291404,0.729319321890607,-0.8276049908307258,-0.38915514287252345,-0.4828621888314045,0.4828621888314045,1.2018134536112453,1.136137321381335,0.7969918523122785,0.7326173854897696,-0.8554260801672614,1.1284528798965938,1.3830451008503275,0.7113672860358247,-0.5357050668167279,1,0,0
71,1,221,45,43_mccoys_steak_crisps.png,2.0,51_smarties.png,1.7,0,4574,62,2369,1.0,-347,2107,1760,6,1,-0.30000000000000004,-0.4841229182759271,0.30000000000000004,-0.5708225124885274,-0.7641568086067158,0.8831104018486021,0.0,5.0,5.0,10.0,3.7,5.0,5.0,2.0,1.7,1,91.67,100.0,71.67,100.0,-7.906850177798411e-18,1.1358011997841495,1.1168338728261231,1.1592503499981108,0.4438657563606913,0.851256085129295,0.8543047284543455,2.599556354388456,-0.3379465428830147,0.3379465428830147,7.906850177798411e-18,1.136137321381335,0.4578463832432223,0.8526028917838565,0.8526028917838576,0.7113672860358228,1.3830451008503275,-0.9569750894072591,1.3830451008503282,0,1,0
72,1,225,44,26_yorkie.png,1.7,102_propercorn_worcester.png,2.3,0,4432,70,2451,1.0,-952,2204,1252,4,1,0.5999999999999999,0.9682458365518538,0.5999999999999999,0.2645275057873652,-0.16579584917568232,0.7937200147063167,1.25,3.58,4.83,8.41,4.0,3.58,4.83,1.7,2.3,0,81.67,81.67,81.67,91.67,0.6676741408951362,0.38831613866792297,1.5920823293478803,0.4722871796288583,1.7838378510344866,-0.16727452545268726,0.7361540456946504,1.1052006057579662,-1.3230472821951027,1.3230472821951027,0.6676741408951362,0.4578463832432229,1.8144282595194456,-0.14962898431969315,0.7326173854897708,-0.12280390168571954,-1.2554163075020448,-0.1228039016857171,0.1840061738685895,0,1,0
73,1,229,53,54_milkyway_magic_stars.png,1.55,107_graze_scream.png,1.55,0,1545,84,1487,1.0,-113,613,500,2,1,0.0,1.0451085762029443e-17,0.0,-1.4061725307644208,0.8813358298286262,-1.0236746872639508,-2.17,5.0,2.83,7.83,3.1,5.0,2.83,1.55,1.55,1,86.67,100.0,91.67,86.67,-1.1590823085939563,0.11564863209722395,0.16633695978260807,0.12880559444423215,0.10887273269224257,0.851256085129295,-0.6538539867723507,-0.38915514287252345,0.04306762736331359,0.04306762736331359,1.1590823085939563,0.11870091417416707,0.11870091417416655,0.8526028917838565,-0.6789768062053689,0.2942816921750516,1.3830451008503275,0.7113672860358247,-0.5357050668167279,1,0,0
74,1,230,41,59_crunchie.png,1.7,11_lindt_orange.png,2.0,1,1291,80,1698,1.0,380,388,768,2,2,0.30000000000000004,0.4841229182759271,0.30000000000000004,-0.5708225124885274,0.5821553501131095,-1.1835701684902924,-0.25,5.0,4.75,9.75,3.7,4.75,5.0,2.0,1.7,1,81.67,96.67,86.67,96.67,-0.13353482817902726,1.0182721021243657,1.1168338728261231,1.1592503499981108,0.4438657563606913,0.6719373156606362,0.8543047284543455,-0.38915514287252345,0.8458026099763044,0.8458026099763044,0.13353482817902726,0.4578463832432229,1.1361373213813344,0.8526028917838565,0.6761536178219651,-0.12280390168571954,0.9037174145539066,0.2942816921750538,0.903717414553907,1,0,1
75,1,236,25,45_gb_ginger.png,2.0,52_discos_salt_vinegar.png,1.7,0,1474,86,2337,1.0,-510,932,422,1,1,-0.30000000000000004,-0.4841229182759271,0.30000000000000004,-0.5708225124885274,1.030926069686385,-1.0683698808350934,-0.25,4.83,4.58,9.41,3.7,4.83,4.58,2.0,1.7,1,91.67,96.67,71.67,91.67,-0.13353482817902726,0.8584325293070593,1.1168338728261231,1.1592503499981108,0.4438657563606913,0.729319321890607,0.5624030416362753,-1.1363330171877684,-0.6033538495075937,0.6033538495075937,0.13353482817902726,1.136137321381335,0.4578463832432223,0.7326173854897696,0.5561681115278784,0.7113672860358228,0.9037174145539066,-0.9569750894072591,0.1840061738685895,1,0,0
76,2,2,22,45_gb_ginger.png,0.5,31_beef_jerky.png,0.65,0,6438,100,2583,2.0,2205,1364,3569,2,2,0.15000000000000002,0.4861744209451278,0.15000000000000002,-0.7119874555983684,0.7815575761541609,3.3925014879197835,-2.67,5.0,2.33,7.33,1.15,5.0,2.33,0.5,0.65,1,61.67,100.0,96.67,86.67,-0.9179892547511818,0.5440740737772288,1.312848784833556,0.5553139957994845,1.273579129776509,1.0735323395359675,-0.2593292795197925,1.490432716527955,3.8769089865029933,3.8769089865029933,0.9179892547511818,0.5660591031294269,1.27644656611776,1.0199688058920118,-0.19942257611115796,-1.6476572581954658,0.5724169681217594,0.6636530349108599,-0.6189886287834152,1,1,1
77,2,9,3,57_food_doctor_mild_korma_crisps.png,0.5,44_walkers_french_fries.png,0.5,1,4299,4,3107,2.0,267,1637,1904,1,1,0.0,0.03624436557174476,0.0,-1.536152999056288,-2.17818709093852,1.6860742067906995,3.5,0.33,3.83,4.16,1.0,3.83,0.33,0.5,0.5,1,91.67,96.67,71.67,71.67,1.2453541923739533,-0.4382962398019347,0.8530962920902878,0.5553139957994845,0.6381134517175434,0.5304319324704779,-1.1904240073939776,-0.2716552241947502,0.631340871840257,0.631340871840257,1.2453541923739533,0.5660591031294269,0.6278639778292716,-1.158099703127096,0.4942211668841691,0.3473300635277514,0.2646199426940877,-1.1046187611808616,-1.975320951901482,0,1,1
78,2,10,1,20_crunch.png,0.5,113_walkers_cheese.png,0.65,0,4088,100,2391,2.0,1883,753,2636,1,1,0.15000000000000002,0.4861744209451278,0.15000000000000002,-0.7119874555983684,0.7815575761541609,1.517745007950944,0.17,4.83,5.0,9.83,1.15,4.83,5.0,0.5,0.65,1,100.0,100.0,66.67,100.0,0.077779852191344,1.3188140687134775,1.312848784833556,0.5553139957994845,1.273579129776509,0.994620314577734,0.9836821821922448,-0.2716552241947502,3.3376556671421045,3.3376556671421045,0.077779852191344,0.5660591031294269,1.27644656611776,0.9406815154138002,1.0352632864205242,0.901271543192898,0.5724169681217594,-1.458273120399206,0.5863386956941734,1,1,1
79,2,23,25,58_walnut_whip.png,0.5,108_chilli_nuts.png,0.65,0,6446,10,1264,2.0,2195,1762,3957,3,1,0.15000000000000002,0.4861744209451278,0.15000000000000002,-0.7119874555983684,-1.9932030492452275,3.3988836376388267,4.42,0.58,5.0,5.58,1.15,0.58,5.0,0.5,0.65,1,51.67,91.67,71.67,100.0,1.567927283355335,0.001756077321854616,1.312848784833556,0.5553139957994845,1.273579129776509,-0.9781803093781049,0.9836821821922448,3.25252065725066,3.860161989007313,3.860161989007313,1.567927283355335,0.5660591031294269,1.27644656611776,-1.0415007465414905,1.0352632864205242,-2.312653032103205,-0.19753775314325725,-1.1046187611808616,0.5863386956941734,0,1,1
80,2,26,4,5_caramello.png,0.5,53_eat_natural_almond_apricot.png,0.65,0,4235,100,1748,2.0,765,608,1373,1,2,0.15000000000000002,0.4861744209451278,0.15000000000000002,-0.7119874555983684,0.7815575761541609,1.635017009038357,-4.42,5.0,0.58,5.58,1.15,5.0,0.58,0.5,0.65,1,91.67,100.0,76.67,76.67,-1.531579373465766,0.001756077321854616,1.312848784833556,0.5553139957994845,1.273579129776509,1.0735323395359675,-1.0740371664097046,-0.2716552241947502,1.4653413471251084,1.4653413471251084,1.531579373465766,0.5660591031294269,1.27644656611776,1.0199688058920118,-1.0086736096057058,0.3473300635277514,0.5724169681217594,-0.7509644019625173,-1.5232101775287932,1,1,1
81,2,27,2,104_graze_sriracha.png,0.65,15_jacobs_mini_cheddars.png,0.65,1,5489,2,2529,2.0,536,2133,2669,1,1,0.0,0.03624436557174476,0.0,-1.536152999056288,-2.2398484381696178,2.635418977498325,0.67,4.33,5.0,9.33,1.3,5.0,4.33,0.65,0.65,1,91.67,76.67,71.67,100.0,0.2530913146812253,1.163866069726228,1.7726012775768245,1.207558819577021,1.273579129776509,1.0735323395359675,0.6717654483543927,-0.2716552241947502,1.0818351044740422,1.0818351044740422,0.2530913146812253,1.203872177078078,1.27644656611776,0.7074836022425895,1.0352632864205242,0.3473300635277514,-1.5840108406552922,-1.1046187611808616,0.5863386956941734,0,1,1
82,2,28,23,107_graze_scream.png,0.5,10_hula_hoops_bbq_beef.png,0.8,0,6380,2,951,2.0,-112,2894,2782,1,1,0.30000000000000004,0.9361044763185108,0.30000000000000004,0.11217808785955123,-2.2398484381696178,3.3462309024567234,-3.25,4.83,1.58,6.41,1.3,4.83,1.58,0.5,0.8,1,91.67,96.67,91.67,81.67,-1.1213505512394442,0.25896975564068925,1.7726012775768245,0.5553139957994845,1.9090448078354736,0.994620314577734,-0.6084898024726121,-0.2716552241947502,-0.0033703332460055546,0.0033703332460055546,1.1213505512394442,0.5660591031294269,1.925029154406248,0.9406815154138002,-0.5462444476088215,0.3473300635277514,0.2646199426940877,0.3099986756925157,-1.0710994031561039,0,1,0
83,2,30,24,33_walkers_smoky_bacon.png,0.5,60_caramel_rice_crisps.png,0.5,1,4479,34,1423,2.0,205,1853,2058,1,1,0.0,0.03624436557174476,0.0,-1.536152999056288,-1.2532668824720572,1.829672575469164,-3.92,5.0,1.08,6.08,1.0,1.08,5.0,0.5,0.5,1,86.67,100.0,91.67,96.67,-1.356267910975885,0.15670407630910438,0.8530962920902878,0.5553139957994845,0.6381134517175434,-0.7460861183244767,0.9836821821922448,-0.2716552241947502,0.5275094873670425,0.5275094873670425,1.356267910975885,0.5660591031294269,0.6278639778292716,1.0199688058920118,-0.7774590286072638,0.014832176573881868,0.5724169681217594,0.3099986756925157,0.2852329199619627,0,1,1
84,2,41,41,64_nestle_aero_mint.png,0.5,23_kp_grazing_mix.png,0.8,1,3113,96,2663,1.0,389,478,867,1,2,0.30000000000000004,0.9361044763185108,0.30000000000000004,0.11217808785955123,0.6582348816919659,0.7399205109425956,-0.92,5.0,4.08,9.08,1.3,4.08,5.0,0.8,0.5,1,96.67,100.0,81.67,76.67,-0.30439913603659724,1.0863920702326029,1.7726012775768245,1.8598036433545575,0.6381134517175434,0.6464790279972921,0.9836821821922448,-0.2716552241947502,0.8356542412875501,0.8356542412875501,0.30439913603659724,0.5660591031294269,1.925029154406248,1.0199688058920118,0.6098284573833903,0.6798279504816209,0.5724169681217594,-0.397310042744173,-1.5232101775287932,1,0,1
85,2,46,4,53_eat_natural_almond_apricot.png,0.65,5_caramello.png,0.5,0,3993,100,2307,1.0,-1567,2344,777,1,2,-0.15000000000000002,-0.4136856898016383,0.15000000000000002,-0.7119874555983684,0.7815575761541609,1.4419569800373102,4.42,0.58,5.0,5.58,1.15,0.58,5.0,0.65,0.5,1,76.67,76.67,91.67,100.0,1.567927283355335,0.001756077321854616,1.312848784833556,1.207558819577021,0.6381134517175434,-0.9781803093781049,0.9836821821922448,-0.2716552241947502,-2.4400584688674094,2.4400584688674094,1.567927283355335,1.203872177078078,0.6278639778292716,-1.0415007465414905,1.0352632864205242,-0.6501635973338572,-1.5840108406552922,0.3099986756925157,0.5863386956941734,1,1,0
86,2,54,2,15_jacobs_mini_cheddars.png,0.65,104_graze_sriracha.png,0.65,1,3326,84,1900,1.0,268,1080,1348,1,1,0.0,0.03624436557174476,0.0,-1.536152999056288,0.2882667983053807,0.9098452472121118,-0.67,5.0,4.33,9.33,1.3,4.33,5.0,0.65,0.65,1,71.67,100.0,91.67,76.67,-0.21674340479165655,1.163866069726228,1.7726012775768245,1.207558819577021,1.273579129776509,0.7625261235241061,0.9836821821922448,-0.2716552241947502,0.6330155715898249,0.6330155715898249,0.21674340479165655,1.203872177078078,1.27644656611776,1.0199688058920118,0.7254357478826114,-0.9826614842877268,0.5724169681217594,0.3099986756925157,-1.5232101775287932,0,1,1
87,2,65,3,44_walkers_french_fries.png,0.5,57_food_doctor_mild_korma_crisps.png,0.5,1,2393,48,1325,1.0,-90,776,686,2,2,0.0,0.03624436557174476,0.0,-1.536152999056288,-0.8216374518543746,0.1655270362287383,-3.5,3.83,0.33,4.16,1.0,0.33,3.83,0.5,0.5,1,71.67,71.67,91.67,96.67,-1.2090062824843848,-0.4382962398019347,0.8530962920902878,0.5553139957994845,0.6381134517175434,-1.0942274049049188,0.4389917663858464,1.490432716527955,0.033473061244489885,0.033473061244489885,1.2090062824843848,0.5660591031294269,0.6278639778292716,0.4742856890713789,-1.1242809001049274,-0.9826614842877268,-2.046168536492637,0.3099986756925157,0.2852329199619627,0,1,1
88,2,68,45,38_milkybar.png,0.65,110_bombay_mix.png,0.5,0,4404,20,2151,1.0,-1056,2281,1225,2,1,-0.15000000000000002,-0.4136856898016383,0.15000000000000002,-0.7119874555983684,-1.68489631308974,1.769839921853137,-2.5,2.58,0.08,2.66,1.15,2.58,0.08,0.65,0.5,1,91.67,46.67,71.67,81.67,-0.8583833575046221,-0.9031402367636842,1.312848784833556,1.207558819577021,0.6381134517175434,-0.049803545163592325,-1.3068108483782508,1.490432716527955,-1.5842868968381743,1.5842868968381743,0.8583833575046221,1.203872177078078,0.6278639778292716,-0.1087090938566478,-1.2398881906041486,0.3473300635277514,-4.356957015679362,-1.1046187611808616,-1.0710994031561039,0,1,0
89,2,73,44,19_pistachios.png,0.65,11_lindt_orange.png,0.65,0,2631,94,1113,1.0,-1173,1595,422,0,1,0.0,0.03624436557174476,0.0,-1.536152999056288,0.5965735344608684,0.35539599037026337,3.92,1.08,5.0,6.08,1.3,1.08,5.0,0.65,0.65,1,100.0,96.67,96.67,100.0,1.3926158208654535,0.15670407630910438,1.7726012775768245,1.207558819577021,1.273579129776509,-0.7460861183244767,0.9836821821922448,-2.0337431649174555,-1.7802267675376269,1.7802267675376269,1.3926158208654535,1.203872177078078,1.27644656611776,-0.8083028333702797,1.0352632864205242,0.901271543192898,0.2646199426940877,0.6636530349108599,0.5863386956941734,1,0,0
90,2,74,1,113_walkers_cheese.png,0.65,20_crunch.png,0.5,0,3073,36,1769,1.0,-1168,1867,699,0,1,-0.15000000000000002,-0.4136856898016383,0.15000000000000002,-0.7119874555983684,-1.1916055352409598,0.7080097623473813,-0.17,5.0,4.83,9.83,1.15,5.0,4.83,0.65,0.5,1,66.67,100.0,100.0,100.0,-0.041431942301775285,1.3188140687134775,1.312848784833556,1.207558819577021,0.6381134517175434,1.0735323395359675,0.9045391303229392,-2.0337431649174555,-1.7718532687897872,1.7718532687897872,0.041431942301775285,1.203872177078078,0.6278639778292716,1.0199688058920118,0.9566503288810538,-1.3151593712415963,0.5724169681217594,0.8991868381502771,0.5863386956941734,0,0,0
91,2,79,42,25_wonderful_almonds.png,0.65,117_yogurt_raisins.png,0.5,1,2177,88,1782,1.0,296,779,1075,1,2,-0.15000000000000002,-0.4136856898016383,0.15000000000000002,-0.7119874555983684,0.4115894927675758,-0.006791006185418898,-0.33,0.33,0.0,0.33,1.15,0.0,0.33,0.5,0.65,0,86.67,96.67,96.67,96.67,-0.0975316102985373,-1.625197912044268,1.312848784833556,0.5553139957994845,1.273579129776509,-1.2474095710003137,-1.1904240073939776,-0.2716552241947502,0.6799071645777283,0.6799071645777283,0.0975316102985373,1.203872177078078,0.6278639778292716,-1.158099703127096,-1.2768825235638994,0.014832176573881868,0.2646199426940877,0.6636530349108599,0.2852329199619627,0,1,1
92,2,95,4,53_eat_natural_almond_apricot.png,0.65,5_caramello.png,0.5,1,1539,100,2359,2.0,-199,729,530,1,1,-0.15000000000000002,-0.4136856898016383,0.15000000000000002,-0.7119874555983684,0.7815575761541609,-0.5157674462790869,4.42,0.58,5.0,5.58,1.15,5.0,0.58,0.5,0.65,1,76.67,76.67,91.67,100.0,1.567927283355335,0.001756077321854616,1.312848784833556,0.5553139957994845,1.273579129776509,1.0735323395359675,-1.0740371664097046,-0.2716552241947502,-0.14906921145841934,0.14906921145841934,1.567927283355335,1.203872177078078,0.6278639778292716,-1.0415007465414905,1.0352632864205242,-0.6501635973338572,-1.5840108406552922,0.3099986756925157,0.5863386956941734,1,1,0
93,2,96,44,19_pistachios.png,0.65,11_lindt_orange.png,0.65,1,1601,100,2738,2.0,-12,628,616,1,1,0.0,0.03624436557174476,0.0,-1.536152999056288,0.7815575761541609,-0.4663057859565048,3.92,1.08,5.0,6.08,1.3,5.0,1.08,0.65,0.65,1,100.0,96.67,96.67,100.0,1.3926158208654535,0.15670407630910438,1.7726012775768245,1.207558819577021,1.273579129776509,1.0735323395359675,-0.8412634844411583,-0.2716552241947502,0.16409964171079194,0.16409964171079194,1.3926158208654535,1.203872177078078,1.27644656611776,-0.8083028333702797,1.0352632864205242,0.901271543192898,0.2646199426940877,0.6636530349108599,0.5863386956941734,1,0,1
94,2,98,3,44_walkers_french_fries.png,0.5,57_food_doctor_mild_korma_crisps.png,0.5,1,1467,24,1299,2.0,-194,590,396,1,1,0.0,0.03624436557174476,0.0,-1.536152999056288,-1.5615736186275448,-0.5732067937504727,-3.5,3.83,0.33,4.16,1.0,0.33,3.83,0.5,0.5,1,71.67,71.67,91.67,96.67,-1.2090062824843848,-0.4382962398019347,0.8530962920902878,0.5553139957994845,0.6381134517175434,-1.0942274049049188,0.4389917663858464,-0.2716552241947502,-0.1406957127105795,0.1406957127105795,1.2090062824843848,0.5660591031294269,0.6278639778292716,0.4742856890713789,-1.1242809001049274,-0.9826614842877268,-2.046168536492637,0.3099986756925157,0.2852329199619627,0,0,0
95,2,99,2,15_jacobs_mini_cheddars.png,0.65,104_graze_sriracha.png,0.65,0,1867,24,2051,2.0,-396,1042,646,1,1,0.0,0.03624436557174476,0.0,-1.536152999056288,-1.5615736186275448,-0.2540993077983297,-0.67,5.0,4.33,9.33,1.3,5.0,4.33,0.65,0.65,1,71.67,100.0,91.67,76.67,-0.21674340479165655,1.163866069726228,1.7726012775768245,1.207558819577021,1.273579129776509,1.0735323395359675,0.6717654483543927,-0.2716552241947502,-0.4789850621233104,0.4789850621233104,0.21674340479165655,1.203872177078078,1.27644656611776,1.0199688058920118,0.7254357478826114,-0.9826614842877268,0.5724169681217594,0.3099986756925157,-1.5232101775287932,0,0,0
96,2,101,45,38_milkybar.png,0.65,110_bombay_mix.png,0.5,0,2378,2,1478,2.0,-1183,1611,428,1,1,-0.15000000000000002,-0.4136856898016383,0.15000000000000002,-0.7119874555983684,-2.2398484381696178,0.15356050550553293,-2.5,2.58,0.08,2.66,1.15,2.58,0.08,0.65,0.5,0,91.67,46.67,71.67,81.67,-0.8583833575046221,-0.9031402367636842,1.312848784833556,1.207558819577021,0.6381134517175434,-0.049803545163592325,-1.3068108483782508,-0.2716552241947502,-1.7969737650333069,1.7969737650333069,0.8583833575046221,1.203872177078078,0.6278639778292716,-0.1087090938566478,-1.2398881906041486,0.3473300635277514,-4.356957015679362,-1.1046187611808616,-1.0710994031561039,0,0,0
97,2,113,42,25_wonderful_almonds.png,0.65,117_yogurt_raisins.png,0.5,0,1482,70,1865,2.0,-380,854,474,1,1,-0.15000000000000002,-0.4136856898016383,0.15000000000000002,-0.7119874555983684,-0.1433626323123019,-0.5612402630272673,-0.33,0.33,0.0,0.33,1.15,0.33,0.0,0.65,0.5,0,86.67,96.67,96.67,96.67,-0.0975316102985373,-1.625197912044268,1.312848784833556,1.207558819577021,0.6381134517175434,-1.0942274049049188,-1.3440546374932183,-0.2716552241947502,-0.4521898661302228,0.4521898661302228,0.0975316102985373,1.203872177078078,0.6278639778292716,-1.158099703127096,-1.2768825235638994,0.014832176573881868,0.2646199426940877,0.6636530349108599,0.2852329199619627,0,0,0
98,2,119,1,113_walkers_cheese.png,0.65,20_crunch.png,0.5,1,1709,96,702,2.0,-444,956,512,2,2,-0.15000000000000002,-0.4136856898016383,0.15000000000000002,-0.7119874555983684,0.6582348816919659,-0.38014676474942616,-0.17,5.0,4.83,9.83,1.15,4.83,5.0,0.5,0.65,1,66.67,100.0,100.0,100.0,-0.041431942301775285,1.3188140687134775,1.312848784833556,0.5553139957994845,1.273579129776509,0.994620314577734,0.9836821821922448,1.490432716527955,-0.5593706501025733,0.5593706501025733,0.041431942301775285,1.203872177078078,0.6278639778292716,1.0199688058920118,0.9566503288810538,-1.3151593712415963,0.5724169681217594,0.8991868381502771,0.5863386956941734,1,1,0
99,2,120,41,64_nestle_aero_mint.png,0.5,23_kp_grazing_mix.png,0.8,0,1236,100,935,2.0,-93,602,509,1,1,0.30000000000000004,0.9361044763185108,0.30000000000000004,0.11217808785955123,0.7815575761541609,-0.7574913668878352,-0.92,5.0,4.08,9.08,1.3,5.0,4.08,0.5,0.8,1,96.67,100.0,81.67,76.67,-0.30439913603659724,1.0863920702326029,1.7726012775768245,0.5553139957994845,1.9090448078354736,1.0735323395359675,0.5553786073701195,-0.2716552241947502,0.02844896199578597,0.02844896199578597,0.30439913603659724,0.5660591031294269,1.925029154406248,1.0199688058920118,0.6098284573833903,0.6798279504816209,0.5724169681217594,-0.397310042744173,-1.5232101775287932,1,0,1
100,2,127,25,108_chilli_nuts.png,0.65,58_walnut_whip.png,0.5,0,1716,76,1251,1.0,-487,1028,541,1,1,-0.15000000000000002,-0.4136856898016383,0.15000000000000002,-0.7119874555983684,0.041621409380990654,-0.3745623837452637,-4.42,5.0,0.58,5.58,1.15,5.0,0.58,0.65,0.5,1,71.67,100.0,51.67,91.67,-1.531579373465766,0.001756077321854616,1.312848784833556,1.207558819577021,0.6381134517175434,1.0735323395359675,-1.0740371664097046,-0.2716552241947502,-0.6313827393339961,0.6313827393339961,1.531579373465766,1.203872177078078,0.6278639778292716,1.0199688058920118,-1.0086736096057058,-0.9826614842877268,0.5724169681217594,-2.519236198054239,-0.16687785441072625,0,1,0
101,2,128,42,117_yogurt_raisins.png,0.5,25_wonderful_almonds.png,0.65,0,1320,82,2077,1.0,-161,670,509,1,1,0.15000000000000002,0.4861744209451278,0.15000000000000002,-0.7119874555983684,0.2266054510742832,-0.6904787948378852,0.33,0.0,0.33,0.33,1.15,0.0,0.33,0.5,0.65,0,96.67,96.67,86.67,96.67,0.13387952018810606,-1.625197912044268,1.312848784833556,0.5553139957994845,1.273579129776509,-1.2474095710003137,-1.1904240073939776,-0.2716552241947502,-0.08543062097483632,0.08543062097483632,0.13387952018810606,0.5660591031294269,1.27644656611776,-1.3120103258200948,-1.1242809001049274,0.6798279504816209,0.2646199426940877,-0.043655683525828666,0.2852329199619627,0,1,1
102,2,130,23,10_hula_hoops_bbq_beef.png,0.8,107_graze_scream.png,0.5,1,1278,100,1348,1.0,-172,664,492,1,1,-0.30000000000000004,-0.8636157451750213,0.30000000000000004,0.11217808785955123,0.7815575761541609,-0.7239850808628602,3.25,1.58,4.83,6.41,1.3,4.83,1.58,0.5,0.8,0,91.67,81.67,91.67,96.67,1.1576984611290126,0.25896975564068925,1.7726012775768245,0.5553139957994845,1.9090448078354736,0.994620314577734,-0.6084898024726121,-0.2716552241947502,-0.10385231822008403,0.10385231822008403,1.1576984611290126,1.8416852510267288,0.6278639778292716,-0.5751049201990691,0.9566503288810538,0.3473300635277514,-1.1218531448179472,0.3099986756925157,0.2852329199619627,1,1,1
103,2,134,24,60_caramel_rice_crisps.png,0.5,33_walkers_smoky_bacon.png,0.5,1,1504,70,1408,1.0,-339,840,501,1,1,0.0,0.03624436557174476,0.0,-1.536152999056288,-0.1433626323123019,-0.5436893512998995,3.92,1.08,5.0,6.08,1.0,5.0,1.08,0.5,0.5,1,91.67,96.67,86.67,100.0,1.3926158208654535,0.15670407630910438,0.8530962920902878,0.5553139957994845,0.6381134517175434,1.0735323395359675,-0.8412634844411583,-0.2716552241947502,-0.3835271763979358,0.3835271763979358,1.3926158208654535,0.5660591031294269,0.6278639778292716,-0.8083028333702797,1.0352632864205242,0.3473300635277514,0.2646199426940877,-0.043655683525828666,0.5863386956941734,0,1,0
104,2,137,44,11_lindt_orange.png,0.65,19_pistachios.png,0.65,1,1124,100,1330,1.0,-98,530,432,2,2,0.0,0.03624436557174476,0.0,-1.536152999056288,0.7815575761541609,-0.8468414629544353,-3.92,5.0,1.08,6.08,1.3,1.08,5.0,0.65,0.65,1,96.67,100.0,100.0,96.67,-1.356267910975885,0.15670407630910438,1.7726012775768245,1.207558819577021,1.273579129776509,-0.7460861183244767,0.9836821821922448,1.490432716527955,0.020075463247946096,0.020075463247946096,1.356267910975885,1.203872177078078,1.27644656611776,1.0199688058920118,-0.7774590286072638,0.6798279504816209,0.5724169681217594,0.8991868381502771,0.2852329199619627,1,1,1
105,2,141,22,31_beef_jerky.png,0.65,45_gb_ginger.png,0.5,0,1254,100,1999,1.0,-281,702,421,1,1,-0.15000000000000002,-0.4136856898016383,0.15000000000000002,-0.7119874555983684,0.7815575761541609,-0.7431315300199888,2.67,2.33,5.0,7.33,1.15,2.33,5.0,0.65,0.5,1,96.67,86.67,61.67,100.0,0.9543371646407504,0.5440740737772288,1.312848784833556,1.207558819577021,0.6381134517175434,-0.1658506406904064,0.9836821821922448,-0.2716552241947502,-0.2863945909229933,0.2863945909229933,0.9543371646407504,1.203872177078078,0.6278639778292716,-0.22530805044225316,1.0352632864205242,0.6798279504816209,-0.6596954489806022,-1.8119274796175504,0.5863386956941734,1,1,0
106,2,150,41,23_kp_grazing_mix.png,0.8,64_nestle_aero_mint.png,0.5,0,1103,94,1621,1.0,-171,566,395,1,1,-0.30000000000000004,-0.8636157451750213,0.30000000000000004,0.11217808785955123,0.5965735344608684,-0.8635946059669227,0.92,4.08,5.0,9.08,1.3,4.08,5.0,0.8,0.5,1,81.67,76.67,96.67,100.0,0.340747045926166,1.0863920702326029,1.7726012775768245,1.8598036433545575,0.6381134517175434,0.6464790279972921,0.9836821821922448,-0.2716552241947502,-0.10217761847051607,0.10217761847051607,0.340747045926166,1.8416852510267288,0.6278639778292716,0.5908846456569842,1.0352632864205242,-0.3176657103799877,-1.5840108406552922,0.6636530349108599,0.5863386956941734,0,0,1
107,2,152,45,110_bombay_mix.png,0.5,38_milkybar.png,0.65,1,1173,20,1473,1.0,49,491,540,1,1,0.15000000000000002,0.4861744209451278,0.15000000000000002,-0.7119874555983684,-1.68489631308974,-0.8077507959252977,2.5,0.08,2.58,2.66,1.15,2.58,0.08,0.65,0.5,1,71.67,81.67,91.67,46.67,0.8947312673941908,-0.9031402367636842,1.312848784833556,1.207558819577021,0.6381134517175434,-0.049803545163592325,-1.3068108483782508,-0.2716552241947502,0.2662563264344384,0.2662563264344384,0.8947312673941908,0.5660591031294269,1.27644656611776,-1.274698659712701,-0.08381528561193675,-0.9826614842877268,-1.1218531448179472,0.3099986756925157,-4.235874823764926,0,0,1
108,2,162,25,108_chilli_nuts.png,0.65,58_walnut_whip.png,0.5,1,1581,70,1257,2.0,-282,865,583,1,2,-0.15000000000000002,-0.4136856898016383,0.15000000000000002,-0.7119874555983684,-0.1433626323123019,-0.4822611602541119,-4.42,5.0,0.58,5.58,1.15,0.58,5.0,0.5,0.65,1,71.67,100.0,51.67,91.67,-1.531579373465766,0.001756077321854616,1.312848784833556,0.5553139957994845,1.273579129776509,-0.9781803093781049,0.9836821821922448,-0.2716552241947502,-0.2880692906725613,0.2880692906725613,1.531579373465766,1.203872177078078,0.6278639778292716,1.0199688058920118,-1.0086736096057058,-0.9826614842877268,0.5724169681217594,-2.519236198054239,-0.16687785441072625,0,0,0
109,2,166,44,11_lindt_orange.png,0.65,19_pistachios.png,0.65,0,2311,100,717,2.0,-270,914,644,2,1,0.0,0.03624436557174476,0.0,-1.536152999056288,0.7815575761541609,0.100110001608549,-3.92,5.0,1.08,6.08,1.3,5.0,1.08,0.65,0.65,1,96.67,100.0,100.0,96.67,-1.356267910975885,0.15670407630910438,1.7726012775768245,1.207558819577021,1.273579129776509,1.0735323395359675,-0.8412634844411583,1.490432716527955,-0.2679728936777456,0.2679728936777456,1.356267910975885,1.203872177078078,1.27644656611776,1.0199688058920118,-0.7774590286072638,0.6798279504816209,0.5724169681217594,0.8991868381502771,0.2852329199619627,1,1,0
110,2,181,23,10_hula_hoops_bbq_beef.png,0.8,107_graze_scream.png,0.5,0,1297,2,904,2.0,-432,630,198,1,1,-0.30000000000000004,-0.8636157451750213,0.30000000000000004,0.11217808785955123,-2.2398484381696178,-0.7088274752801335,3.25,1.58,4.83,6.41,1.3,1.58,4.83,0.8,0.5,0,91.67,81.67,91.67,96.67,1.1576984611290126,0.25896975564068925,1.7726012775768245,1.8598036433545575,0.6381134517175434,-0.5139919272708485,0.9045391303229392,-0.2716552241947502,-0.5392742531077576,0.5392742531077576,1.1576984611290126,1.8416852510267288,0.6278639778292716,-0.5751049201990691,0.9566503288810538,0.3473300635277514,-1.1218531448179472,0.3099986756925157,0.2852329199619627,0,0,0
111,2,185,45,110_bombay_mix.png,0.5,38_milkybar.png,0.65,0,2018,24,1542,2.0,-338,872,534,3,1,0.15000000000000002,0.4861744209451278,0.15000000000000002,-0.7119874555983684,-1.5615736186275448,-0.13363623185139573,2.5,0.08,2.58,2.66,1.15,0.08,2.58,0.5,0.65,1,71.67,81.67,91.67,46.67,0.8947312673941908,-0.9031402367636842,1.312848784833556,0.5553139957994845,1.273579129776509,-1.2102745004317328,-0.14294243853551938,3.25252065725066,-0.3818524766483679,0.3818524766483679,0.8947312673941908,0.5660591031294269,1.27644656611776,-1.274698659712701,-0.08381528561193675,-0.9826614842877268,-1.1218531448179472,0.3099986756925157,-4.235874823764926,0,1,0
112,2,188,22,31_beef_jerky.png,0.65,45_gb_ginger.png,0.5,1,1212,100,1087,2.0,-155,626,471,1,1,-0.15000000000000002,-0.4136856898016383,0.15000000000000002,-0.7119874555983684,0.7815575761541609,-0.7766378160449638,2.67,2.33,5.0,7.33,1.15,5.0,2.33,0.5,0.65,1,96.67,86.67,61.67,100.0,0.9543371646407504,0.5440740737772288,1.312848784833556,0.5553139957994845,1.273579129776509,1.0735323395359675,-0.2593292795197925,-0.2716552241947502,-0.07538242247742848,0.07538242247742848,0.9543371646407504,1.203872177078078,0.6278639778292716,-0.22530805044225316,1.0352632864205242,0.6798279504816209,-0.6596954489806022,-1.8119274796175504,0.5863386956941734,1,0,0
113,2,189,42,117_yogurt_raisins.png,0.5,25_wonderful_almonds.png,0.65,1,1160,82,973,2.0,-210,624,414,1,1,0.15000000000000002,0.4861744209451278,0.15000000000000002,-0.7119874555983684,0.2266054510742832,-0.8181217892187423,0.33,0.0,0.33,0.33,1.15,0.33,0.0,0.65,0.5,0,96.67,96.67,86.67,96.67,0.13387952018810606,-1.625197912044268,1.312848784833556,1.207558819577021,0.6381134517175434,-1.0942274049049188,-1.3440546374932183,-0.2716552241947502,-0.1674909087036671,0.1674909087036671,0.13387952018810606,0.5660591031294269,1.27644656611776,-1.3120103258200948,-1.1242809001049274,0.6798279504816209,0.2646199426940877,-0.043655683525828666,0.2852329199619627,0,0,0
114,2,190,41,23_kp_grazing_mix.png,0.8,64_nestle_aero_mint.png,0.5,1,1098,100,905,2.0,-159,567,408,1,1,-0.30000000000000004,-0.8636157451750213,0.30000000000000004,0.11217808785955123,0.7815575761541609,-0.8675834495413245,0.92,4.08,5.0,9.08,1.3,5.0,4.08,0.5,0.8,1,81.67,76.67,96.67,100.0,0.340747045926166,1.0863920702326029,1.7726012775768245,0.5553139957994845,1.9090448078354736,1.0735323395359675,0.5553786073701195,-0.2716552241947502,-0.08208122147570038,0.08208122147570038,0.340747045926166,1.8416852510267288,0.6278639778292716,0.5908846456569842,1.0352632864205242,-0.3176657103799877,-1.5840108406552922,0.6636530349108599,0.5863386956941734,1,0,0
115,2,193,24,60_caramel_rice_crisps.png,0.5,33_walkers_smoky_bacon.png,0.5,0,1373,66,1146,2.0,-478,851,373,1,1,0.0,0.03624436557174476,0.0,-1.536152999056288,-0.26668532677449697,-0.6481970529492262,3.92,1.08,5.0,6.08,1.0,1.08,5.0,0.5,0.5,1,91.67,96.67,86.67,100.0,1.3926158208654535,0.15670407630910438,0.8530962920902878,0.5553139957994845,0.6381134517175434,-0.7460861183244767,0.9836821821922448,-0.2716552241947502,-0.6163104415878844,0.6163104415878844,1.3926158208654535,0.5660591031294269,0.6278639778292716,-0.8083028333702797,1.0352632864205242,0.3473300635277514,0.2646199426940877,-0.043655683525828666,0.5863386956941734,0,0,0
116,2,201,41,64_nestle_aero_mint.png,0.5,23_kp_grazing_mix.png,0.8,1,1829,100,1520,1.0,123,558,681,1,2,0.30000000000000004,0.9361044763185108,0.30000000000000004,0.11217808785955123,0.7815575761541609,-0.2844145189637833,-0.92,5.0,4.08,9.08,1.3,4.08,5.0,0.8,0.5,1,96.67,100.0,81.67,76.67,-0.30439913603659724,1.0863920702326029,1.7726012775768245,1.8598036433545575,0.6381134517175434,0.6464790279972921,0.9836821821922448,-0.2716552241947502,0.3901841079024686,0.3901841079024686,0.30439913603659724,0.5660591031294269,1.925029154406248,1.0199688058920118,0.6098284573833903,0.6798279504816209,0.5724169681217594,-0.397310042744173,-1.5232101775287932,1,0,1
117,2,206,4,53_eat_natural_almond_apricot.png,0.65,5_caramello.png,0.5,0,1545,100,967,1.0,-341,621,280,1,1,-0.15000000000000002,-0.4136856898016383,0.15000000000000002,-0.7119874555983684,0.7815575761541609,-0.5109808339898048,4.42,0.58,5.0,5.58,1.15,0.58,5.0,0.65,0.5,1,76.67,76.67,91.67,100.0,1.567927283355335,0.001756077321854616,1.312848784833556,1.207558819577021,0.6381134517175434,-0.9781803093781049,0.9836821821922448,-0.2716552241947502,-0.3868765758970718,0.3868765758970718,1.567927283355335,1.203872177078078,0.6278639778292716,-1.0415007465414905,1.0352632864205242,-0.6501635973338572,-1.5840108406552922,0.3099986756925157,0.5863386956941734,1,0,0
118,2,214,2,15_jacobs_mini_cheddars.png,0.65,104_graze_sriracha.png,0.65,1,882,90,1554,1.0,27,373,400,1,1,0.0,0.03624436557174476,0.0,-1.536152999056288,0.4732508399986733,-1.0399014919554816,-0.67,5.0,4.33,9.33,1.3,4.33,5.0,0.65,0.65,1,71.67,100.0,91.67,76.67,-0.21674340479165655,1.163866069726228,1.7726012775768245,1.207558819577021,1.273579129776509,0.7625261235241061,0.9836821821922448,-0.2716552241947502,0.22941293194394297,0.22941293194394297,0.21674340479165655,1.203872177078078,1.27644656611776,1.0199688058920118,0.7254357478826114,-0.9826614842877268,0.5724169681217594,0.3099986756925157,-1.5232101775287932,0,0,1
119,2,225,3,44_walkers_french_fries.png,0.5,57_food_doctor_mild_korma_crisps.png,0.5,1,959,100,1211,1.0,-64,457,393,1,1,0.0,0.03624436557174476,0.0,-1.536152999056288,0.7815575761541609,-0.9784733009096942,-3.5,3.83,0.33,4.16,1.0,0.33,3.83,0.5,0.5,1,71.67,71.67,91.67,96.67,-1.2090062824843848,-0.4382962398019347,0.8530962920902878,0.5553139957994845,0.6381134517175434,-1.0942274049049188,0.4389917663858464,-0.2716552241947502,0.07701525473325724,0.07701525473325724,1.2090062824843848,0.5660591031294269,0.6278639778292716,0.4742856890713789,-1.1242809001049274,-0.9826614842877268,-2.046168536492637,0.3099986756925157,0.2852329199619627,1,0,1
120,2,228,45,38_milkybar.png,0.65,110_bombay_mix.png,0.5,0,1196,42,856,1.0,-293,679,386,1,1,-0.15000000000000002,-0.4136856898016383,0.15000000000000002,-0.7119874555983684,-1.0066214935476672,-0.7894021154830495,-2.5,2.58,0.08,2.66,1.15,2.58,0.08,0.65,0.5,1,91.67,46.67,71.67,81.67,-0.8583833575046221,-0.9031402367636842,1.312848784833556,1.207558819577021,0.6381134517175434,-0.049803545163592325,-1.3068108483782508,-0.2716552241947502,-0.306490987917809,0.306490987917809,0.8583833575046221,1.203872177078078,0.6278639778292716,-0.1087090938566478,-1.2398881906041486,0.3473300635277514,-4.356957015679362,-1.1046187611808616,-1.0710994031561039,0,0,0
121,2,233,44,19_pistachios.png,0.65,11_lindt_orange.png,0.65,0,1188,100,2368,1.0,-340,568,228,1,1,0.0,0.03624436557174476,0.0,-1.536152999056288,0.7815575761541609,-0.7957842652020923,3.92,1.08,5.0,6.08,1.3,1.08,5.0,0.65,0.65,1,100.0,96.67,96.67,100.0,1.3926158208654535,0.15670407630910438,1.7726012775768245,1.207558819577021,1.273579129776509,-0.7460861183244767,0.9836821821922448,-0.2716552241947502,-0.38520187614750384,0.38520187614750384,1.3926158208654535,1.203872177078078,1.27644656611776,-0.8083028333702797,1.0352632864205242,0.901271543192898,0.2646199426940877,0.6636530349108599,0.5863386956941734,1,0,0
122,2,234,1,113_walkers_cheese.png,0.65,20_crunch.png,0.5,0,1411,74,1500,1.0,-115,549,434,1,1,-0.15000000000000002,-0.4136856898016383,0.15000000000000002,-0.7119874555983684,-0.020039937850106868,-0.6178818417837727,-0.17,5.0,4.83,9.83,1.15,5.0,4.83,0.65,0.5,1,66.67,100.0,100.0,100.0,-0.041431942301775285,1.3188140687134775,1.312848784833556,1.207558819577021,0.6381134517175434,1.0735323395359675,0.9045391303229392,-0.2716552241947502,-0.00839443249470948,0.00839443249470948,0.041431942301775285,1.203872177078078,0.6278639778292716,1.0199688058920118,0.9566503288810538,-1.3151593712415963,0.5724169681217594,0.8991868381502771,0.5863386956941734,0,0,1
123,2,239,42,25_wonderful_almonds.png,0.65,117_yogurt_raisins.png,0.5,1,1032,100,1706,1.0,-238,580,342,1,1,-0.15000000000000002,-0.4136856898016383,0.15000000000000002,-0.7119874555983684,0.7815575761541609,-0.9202361847234282,-0.33,0.33,0.0,0.33,1.15,0.0,0.33,0.5,0.65,0,86.67,96.67,96.67,96.67,-0.0975316102985373,-1.625197912044268,1.312848784833556,0.5553139957994845,1.273579129776509,-1.2474095710003137,-1.1904240073939776,-0.2716552241947502,-0.2143825016915704,0.2143825016915704,0.0975316102985373,1.203872177078078,0.6278639778292716,-1.158099703127096,-1.2768825235638994,0.014832176573881868,0.2646199426940877,0.6636530349108599,0.2852329199619627,1,1,0
124,3,2,23,26_yorkie.png,2.75,63_kitkat.png,2.15,1,4734,30,6346,2.0,696,1370,2066,2,2,-0.6000000000000001,-0.4236115036089844,0.6000000000000001,-0.6031612297799208,-1.3662795087027737,1.2902238355165878,1.42,3.58,5.0,8.58,4.9,5.0,3.58,2.15,2.75,1,86.67,31.67,71.67,100.0,0.5984565218328505,1.7788326517786754,1.830407983307934,0.9954885082559218,1.6177622589325753,1.6332634654222131,0.7864174378012606,-0.046454946838697,0.8861322017301664,0.8861322017301664,0.5984565218328505,1.6027824279529446,1.0091593064888915,0.7723831401377066,1.6492258255438714,0.6970799143855939,-1.9578543681857752,0.0580195778839438,1.2679670113456531,0,1,1
125,3,10,45,13_fruit_pastilles.png,2.75,34_hobnob_flapjack.png,2.15,0,6404,88,1720,2.0,1334,1674,3008,6,1,-0.6000000000000001,-0.4236115036089844,0.6000000000000001,-0.6031612297799208,0.7319785187842751,2.313378313830716,-1.33,4.58,3.25,7.83,4.9,4.58,3.25,2.75,2.15,0,96.67,96.67,51.67,91.67,-0.5605261788997826,1.438639411956999,1.830407983307934,1.588090183282184,1.023027090981871,1.3745408571614692,0.5821196680178781,3.3840642043266183,1.7984997369072009,1.7984997369072009,0.5605261788997826,1.6027824279529446,1.0091593064888915,1.3898779890152868,0.5686098400081058,1.1231201387200274,1.110759559364976,-0.7940608707849229,0.874712334168764,1,1,1
126,3,12,43,115_shapers_blueberry.png,1.7,14_maltesers.png,1.25,1,5112,38,1589,2.0,-860,2540,1680,3,2,-0.45,-0.31770862770673824,0.45,-0.7765941712501855,-1.0768646083597324,1.5218120946799054,4.42,0.58,5.0,5.58,2.95,5.0,0.58,1.25,1.7,1,61.67,61.67,66.67,100.0,1.8628012862684504,0.4180596924919697,0.4784020865463927,0.10658599571652884,0.5769757150188431,1.6332634654222131,-1.0708350147749433,0.8111748409526317,-1.3390149530276172,1.3390149530276172,1.8628012862684504,0.5639419653908511,0.11872462429281125,-1.0801014064950338,1.6492258255438714,-0.3680206464504896,-0.5415710170085054,-0.1550005342832729,1.2679670113456531,0,1,0
127,3,13,25,24_twix.png,2.0,33_walkers_smoky_bacon.png,3.0,0,2769,32,2316,2.0,-287,1091,804,1,1,1.0,0.7060191726816406,1.0,-0.1406733858592155,-1.2939257836170135,0.08633248827870629,-0.75,4.58,3.83,8.41,5.0,4.58,3.83,2.0,3.0,1,36.67,100.0,100.0,76.67,-0.3160861911089,1.701722184085762,1.8997416190392948,0.8473380894993564,1.8655685789120355,1.3745408571614692,0.9411884755159442,-0.9040847346300256,-0.5196002231585877,0.5196002231585877,0.3160861911089,0.8607535261228777,1.8501253952296344,1.3898779890152868,0.9267568523571024,-1.4331212072865733,1.2679670113456531,1.2649915334233934,0.16657065858012834,0,0,0
128,3,14,42,31_beef_jerky.png,2.6,30_starburst_original.png,2.0,0,3526,20,1572,2.0,688,1042,1730,2,2,-0.6000000000000001,-0.4236115036089844,0.6000000000000001,-0.6031612297799208,-1.7280481341315752,0.5501216739576255,3.42,1.58,5.0,6.58,4.6,1.58,5.0,2.6,2.0,0,56.67,56.67,76.67,100.0,1.4413530314565837,0.8716506789208716,1.6224070761138505,1.439939764525619,0.8743432989941953,-0.4734777732724148,1.6655169320206635,-0.046454946838697,0.8746918564614888,0.8746918564614888,1.4413530314565837,1.4543766475869313,0.8607535261228781,-0.4626065576174537,1.6492258255438714,-0.5810407586177063,-0.7776182422047171,0.2710396900511605,1.2679670113456531,0,1,1
129,3,27,21,62_cadbury_wispa.png,3.0,102_propercorn_worcester.png,2.3,0,4247,52,1542,2.0,338,1271,1609,2,1,-0.7000000000000002,-0.4942134208771485,0.7000000000000002,-0.4875392687997443,-0.5703885327594104,0.991854834954324,-5.0,5.0,0.0,5.0,5.3,5.0,0.0,3.0,2.3,0,46.67,100.0,46.67,86.67,-2.1072412740593327,0.1549769203632066,2.1077425262333778,1.83500754787646,1.171710882969547,1.6332634654222131,-1.4299038222730094,-0.046454946838697,0.3741767509568459,0.3741767509568459,2.1072412740593327,1.8501253952296333,1.1575650868549048,1.6492258255438703,-1.4382484188440303,-1.0070809829521397,1.2679670113456531,-1.0070809829521397,0.6386651089725521,0,1,1
130,3,49,23,26_yorkie.png,2.75,63_kitkat.png,2.15,0,5770,46,3798,1.0,2510,1088,3598,4,1,-0.6000000000000001,-0.4236115036089844,0.6000000000000001,-0.6031612297799208,-0.7874497080166912,1.9249472124827176,1.42,3.58,5.0,8.58,4.9,3.58,5.0,2.75,2.15,1,86.67,31.67,71.67,100.0,0.5984565218328505,1.7788326517786754,1.830407983307934,1.588090183282184,1.023027090981871,0.7585346470168413,1.6655169320206635,1.6688046287439604,3.4802304914028013,3.4802304914028013,0.5984565218328505,1.6027824279529446,1.0091593064888915,0.7723831401377066,1.6492258255438714,0.6970799143855939,-1.9578543681857752,0.0580195778839438,1.2679670113456531,0,1,1
131,3,59,25,24_twix.png,2.0,33_walkers_smoky_bacon.png,3.0,1,2382,80,2514,1.0,-133,1068,935,2,2,1.0,0.7060191726816406,1.0,-0.1406733858592155,0.4425636184412339,-0.15076977705516653,-0.75,4.58,3.83,8.41,5.0,3.83,4.58,3.0,2.0,1,36.67,100.0,100.0,76.67,-0.3160861911089,1.701722184085762,1.8997416190392948,1.83500754787646,0.8743432989941953,0.9125361995529984,1.4055015886599953,-0.046454946838697,-0.2993735767365449,0.2993735767365449,0.3160861911089,0.8607535261228777,1.8501253952296344,1.3898779890152868,0.9267568523571024,-1.4331212072865733,1.2679670113456531,1.2649915334233934,0.16657065858012834,1,1,0
132,3,66,21,62_cadbury_wispa.png,3.0,102_propercorn_worcester.png,2.3,1,5758,46,1689,1.0,1513,1750,3263,4,2,-0.7000000000000002,-0.4942134208771485,0.7000000000000002,-0.4875392687997443,-0.7874497080166912,1.9175952042553104,-5.0,5.0,0.0,5.0,5.3,0.0,5.0,2.3,3.0,0,46.67,100.0,46.67,86.67,-2.1072412740593327,0.1549769203632066,2.1077425262333778,1.1436389270124874,1.8655685789120355,-1.4467675853009272,1.6655169320206635,1.6688046287439604,2.0544774622938613,2.0544774622938613,2.1072412740593327,1.8501253952296333,1.1575650868549048,1.6492258255438703,-1.4382484188440303,-1.0070809829521397,1.2679670113456531,-1.0070809829521397,0.6386651089725521,0,1,1
133,3,72,43,115_shapers_blueberry.png,1.7,14_maltesers.png,1.25,0,4034,26,1509,1.0,-726,2006,1280,2,1,-0.45,-0.31770862770673824,0.45,-0.7765941712501855,-1.5109869588742944,0.8613566889178513,4.42,0.58,5.0,5.58,2.95,0.58,5.0,1.7,1.25,1,61.67,61.67,66.67,100.0,1.8628012862684504,0.4180596924919697,0.4784020865463927,0.5510372519862253,0.13092433905581516,-1.089483983417043,1.6655169320206635,-0.046454946838697,-1.1473891697772682,1.1473891697772682,1.8628012862684504,0.5639419653908511,0.11872462429281125,-1.0801014064950338,1.6492258255438714,-0.3680206464504896,-0.5415710170085054,-0.1550005342832729,1.2679670113456531,0,1,0
134,3,74,45,13_fruit_pastilles.png,2.75,34_hobnob_flapjack.png,2.15,1,9110,82,1692,1.0,-943,4282,3339,4,2,-0.6000000000000001,-0.4236115036089844,0.6000000000000001,-0.6031612297799208,0.5149173435269943,3.9712561691109753,-1.33,4.58,3.25,7.83,4.9,3.25,4.58,2.15,2.75,0,96.67,96.67,51.67,91.67,-0.5605261788997826,1.438639411956999,1.830407983307934,0.9954885082559218,1.6177622589325753,0.5552525976691141,1.4055015886599953,1.6688046287439604,-1.4577085351901469,1.4577085351901469,0.5605261788997826,1.6027824279529446,1.0091593064888915,1.3898779890152868,0.5686098400081058,1.1231201387200274,1.110759559364976,-0.7940608707849229,0.874712334168764,1,1,0
135,3,76,42,31_beef_jerky.png,2.6,30_starburst_original.png,2.0,1,2310,38,1660,1.0,223,870,1093,2,2,-0.6000000000000001,-0.4236115036089844,0.6000000000000001,-0.6031612297799208,-1.0768646083597324,-0.194881826419608,3.42,1.58,5.0,6.58,4.6,5.0,1.58,2.0,2.6,0,56.67,56.67,76.67,100.0,1.4413530314565837,0.8716506789208716,1.6224070761138505,0.8473380894993564,1.4690784669448993,1.6332634654222131,-0.4517508639162086,-0.046454946838697,0.20972178771960606,0.20972178771960606,1.4413530314565837,1.4543766475869313,0.8607535261228781,-0.4626065576174537,1.6492258255438714,-0.5810407586177063,-0.7776182422047171,0.2710396900511605,1.2679670113456531,0,1,1
136,3,81,4,57_food_doctor_mild_korma_crisps.png,1.25,113_walkers_cheese.png,2.15,0,1964,84,977,2.0,-543,1135,592,2,1,0.8999999999999999,0.6354172554134765,0.8999999999999999,-0.2562953468393919,0.5872710686127545,-0.40686473030984055,5.0,0.0,5.0,5.0,3.4,0.0,5.0,1.25,2.15,1,21.67,100.0,96.67,100.0,2.1072412740593327,0.1549769203632066,0.7904034473375174,0.10658599571652884,1.023027090981871,-1.4467675853009272,1.6655169320206635,-0.046454946838697,-0.8856912717562693,0.8856912717562693,2.1072412740593327,0.11872462429281098,1.0091593064888915,-1.4382484188440303,1.6492258255438714,-2.0721815437882234,1.2679670113456531,1.1231201387200274,1.2679670113456531,1,1,0
137,3,90,45,34_hobnob_flapjack.png,2.15,13_fruit_pastilles.png,2.75,1,3112,88,790,2.0,-98,1302,1204,2,2,0.6000000000000001,0.4236115036089844,0.6000000000000001,-0.6031612297799208,0.7319785187842751,0.2964773901120871,1.33,3.25,4.58,7.83,4.9,4.58,3.25,2.75,2.15,0,51.67,91.67,96.67,96.67,0.5605261788997826,1.438639411956999,1.830407983307934,1.588090183282184,1.023027090981871,1.3745408571614692,0.5821196680178781,-0.046454946838697,-0.2493220661860806,0.2493220661860806,0.5605261788997826,1.0091593064888909,1.602782427952945,0.5686098400081051,1.3898779890152877,-0.7940608707849229,0.8747123341687644,1.1231201387200274,1.110759559364976,1,1,0
138,3,94,42,30_starburst_original.png,2.0,31_beef_jerky.png,2.6,1,3026,16,1182,2.0,-22,1158,1136,3,2,0.6000000000000001,0.4236115036089844,0.6000000000000001,-0.6031612297799208,-1.8727555843030959,0.2437879978156709,-3.42,5.0,1.58,6.58,4.6,1.58,5.0,2.6,2.0,0,76.67,100.0,56.67,56.67,-1.4413530314565837,0.8716506789208716,1.6224070761138505,1.439939764525619,0.8743432989941953,-0.4734777732724148,1.6655169320206635,0.8111748409526317,-0.14063878613364386,0.14063878613364386,1.4413530314565837,0.8607535261228777,1.4543766475869315,1.6492258255438703,-0.4626065576174533,0.2710396900511605,1.2679670113456531,-0.5810407586177063,-0.7776182422047193,0,1,0
139,3,99,43,14_maltesers.png,1.25,115_shapers_blueberry.png,1.7,0,14774,12,1258,2.0,4361,3515,7876,8,1,0.45,0.31770862770673824,0.45,-0.7765941712501855,-2.0174630344746163,7.4414040524470355,-4.42,5.0,0.58,5.58,2.95,5.0,0.58,1.25,1.7,1,66.67,100.0,61.67,61.67,-1.8628012862684504,0.4180596924919697,0.4784020865463927,0.10658599571652884,0.5769757150188431,1.6332634654222131,-1.0708350147749433,5.099323779909275,6.1272403779430675,6.1272403779430675,1.8628012862684504,0.11872462429281098,0.5639419653908514,1.6492258255438703,-1.0801014064950336,-0.1550005342832729,1.2679670113456531,-0.3680206464504896,-0.5415710170085074,0,1,1
140,3,110,1,43_mccoys_steak_crisps.png,2.6,107_graze_scream.png,2.75,1,2876,90,2157,2.0,890,758,1648,2,2,0.1499999999999999,0.10590287590224604,0.1499999999999999,-1.1234600541907145,0.8043322438700354,0.15188789497308458,-1.5,2.58,1.08,3.66,5.35,1.08,2.58,2.75,2.6,0,100.0,61.67,81.67,56.67,-0.6321723822177999,-0.4528350014515219,2.1424093440990584,1.588090183282184,1.4690784669448993,-0.7814808783447288,0.16733328694252594,-0.046454946838697,1.1635605744955968,1.1635605744955968,0.6321723822177999,1.4543766475869313,1.602782427952945,0.15488829126012646,-0.7713539820562435,1.2649915334233934,-0.5415710170085054,0.4840598022183772,-0.7776182422047193,1,0,1
141,3,119,2,27_mars.png,2.3,112_lindt_extra_creamy.png,2.85,0,3462,42,1862,2.0,-229,1512,1283,3,1,0.5500000000000003,0.3883105449749025,0.5500000000000003,-0.6609722102700087,-0.9321571581882121,0.5109109634114554,-1.17,5.0,3.83,8.83,5.15,5.0,3.83,2.3,2.85,1,81.67,100.0,75.0,21.67,-0.4930944581298839,1.8922303983859008,2.003742072636337,1.1436389270124874,1.7168847869243593,1.6332634654222131,0.9411884755159442,0.8111748409526317,-0.4366577199606754,0.4366577199606754,0.4930944581298839,1.1575650868549043,1.7017196148636209,1.6492258255438703,0.9267568523571024,0.4840598022183772,1.2679670113456531,0.19989097258731006,-2.4299488185782026,0,1,0
142,3,137,42,30_starburst_original.png,2.0,31_beef_jerky.png,2.6,0,1625,10,891,1.0,-606,1036,430,1,1,0.6000000000000001,0.4236115036089844,0.6000000000000001,-0.6031612297799208,-2.0898167595603767,-0.6145589627340857,-3.42,5.0,1.58,6.58,4.6,5.0,1.58,2.0,2.6,0,76.67,100.0,56.67,56.67,-1.4413530314565837,0.8716506789208716,1.6224070761138505,0.8473380894993564,1.4690784669448993,1.6332634654222131,-0.4517508639162086,-0.9040847346300256,-0.975783990747105,0.975783990747105,1.4413530314565837,0.8607535261228777,1.4543766475869315,1.6492258255438703,-0.4626065576174533,0.2710396900511605,1.2679670113456531,-0.5810407586177063,-0.7776182422047193,0,0,0
143,3,150,1,43_mccoys_steak_crisps.png,2.6,107_graze_scream.png,2.75,0,1410,76,1623,1.0,-438,850,412,1,1,0.1499999999999999,0.10590287590224604,0.1499999999999999,-1.1234600541907145,0.2978561682697133,-0.7462824434751262,-1.5,2.58,1.08,3.66,5.35,2.58,1.08,2.6,2.75,0,100.0,61.67,81.67,56.67,-0.6321723822177999,-0.4528350014515219,2.1424093440990584,1.439939764525619,1.6177622589325753,0.14252843687221325,-0.7612929393455758,-0.9040847346300256,-0.7355367401048765,0.7355367401048765,0.6321723822177999,1.4543766475869313,1.602782427952945,0.15488829126012646,-0.7713539820562435,1.2649915334233934,-0.5415710170085054,0.4840598022183772,-0.7776182422047193,0,0,0
144,3,153,43,14_maltesers.png,1.25,115_shapers_blueberry.png,1.7,0,3687,78,927,1.0,601,1252,1853,2,2,0.45,0.31770862770673824,0.45,-0.7765941712501855,0.3702098933554736,0.6487611176753348,-4.42,5.0,0.58,5.58,2.95,5.0,0.58,1.25,1.7,0,66.67,100.0,61.67,61.67,-1.8628012862684504,0.4180596924919697,0.4784020865463927,0.10658599571652884,0.5769757150188431,1.6332634654222131,-1.0708350147749433,-0.046454946838697,0.7502781016646204,0.7502781016646204,1.8628012862684504,0.11872462429281098,0.5639419653908514,1.6492258255438703,-1.0801014064950336,-0.1550005342832729,1.2679670113456531,-0.3680206464504896,-0.5415710170085074,0,0,1
145,3,155,45,34_hobnob_flapjack.png,2.15,13_fruit_pastilles.png,2.75,0,1499,88,1817,1.0,-537,917,380,0,1,0.6000000000000001,0.4236115036089844,0.6000000000000001,-0.6031612297799208,0.7319785187842751,-0.6917550491218584,1.33,3.25,4.58,7.83,4.9,3.25,4.58,2.15,2.75,0,51.67,91.67,96.67,96.67,0.5605261788997826,1.438639411956999,1.830407983307934,0.9954885082559218,1.6177622589325753,0.5552525976691141,1.4055015886599953,-1.7617145224213544,-0.8771110128047611,0.8771110128047611,0.5605261788997826,1.0091593064888909,1.602782427952945,0.5686098400081051,1.3898779890152877,-0.7940608707849229,0.8747123341687644,1.1231201387200274,1.110759559364976,1,0,0
146,3,156,4,57_food_doctor_mild_korma_crisps.png,1.25,113_walkers_cheese.png,2.15,1,871,100,1087,1.0,10,370,380,1,1,0.8999999999999999,0.6354172554134765,0.8999999999999999,-0.2562953468393919,1.1661008692988368,-1.0765101463561533,5.0,0.0,5.0,5.0,3.4,5.0,0.0,2.15,1.25,1,21.67,100.0,96.67,100.0,2.1072412740593327,0.1549769203632066,0.7904034473375174,0.9954885082559218,0.13092433905581516,1.6332634654222131,-1.4299038222730094,-0.9040847346300256,-0.09487740505893366,0.09487740505893366,2.1072412740593327,0.11872462429281098,1.0091593064888915,-1.4382484188440303,1.6492258255438714,-2.0721815437882234,1.2679670113456531,1.1231201387200274,1.2679670113456531,1,0,0
147,3,159,2,27_mars.png,2.3,112_lindt_extra_creamy.png,2.85,1,1764,76,1407,1.0,19,764,783,2,2,0.5500000000000003,0.3883105449749025,0.5500000000000003,-0.6609722102700087,0.2978561682697133,-0.5293982007666224,-1.17,5.0,3.83,8.83,5.15,3.83,5.0,2.85,2.3,1,81.67,100.0,75.0,21.67,-0.4930944581298839,1.8922303983859008,2.003742072636337,1.6868571291198944,1.171710882969547,0.9125361995529984,1.6655169320206635,-0.046454946838697,-0.08200701663167141,0.08200701663167141,0.4930944581298839,1.1575650868549043,1.7017196148636209,1.6492258255438703,0.9267568523571024,0.4840598022183772,1.2679670113456531,0.19989097258731006,-2.4299488185782026,0,0,1
148,3,167,23,63_kitkat.png,2.15,26_yorkie.png,2.75,0,2811,18,1071,2.0,-175,1302,1127,2,2,0.6000000000000001,0.4236115036089844,0.6000000000000001,-0.6031612297799208,-1.8004018592173356,0.11206451707463047,-1.42,5.0,3.58,8.58,4.9,5.0,3.58,2.15,2.75,1,71.67,100.0,86.67,31.67,-0.5984565218328505,1.7788326517786754,1.830407983307934,0.9954885082559218,1.6177622589325753,1.6332634654222131,0.7864174378012606,-0.046454946838697,-0.35943538939710207,0.35943538939710207,0.5984565218328505,1.0091593064888909,1.602782427952945,1.6492258255438703,0.7723831401377074,0.0580195778839438,1.2679670113456531,0.6970799143855939,-1.9578543681857792,0,0,0
149,3,177,21,102_propercorn_worcester.png,2.3,62_cadbury_wispa.png,3.0,0,3626,34,2235,2.0,291,1442,1733,2,2,0.7000000000000002,0.4942134208771485,0.7000000000000002,-0.4875392687997443,-1.2215720585312528,0.6113884091860164,5.0,0.0,5.0,5.0,5.3,0.0,5.0,2.3,3.0,1,46.67,86.67,46.67,100.0,2.1072412740593327,0.1549769203632066,2.1077425262333778,1.1436389270124874,1.8655685789120355,-1.4467675853009272,1.6655169320206635,-0.046454946838697,0.3069647225033653,0.3069647225033653,2.1072412740593327,1.1575650868549043,1.8501253952296344,-1.4382484188440303,1.6492258255438714,-1.0070809829521397,0.6386651089725528,-1.0070809829521397,1.2679670113456531,0,0,1
150,3,178,1,107_graze_scream.png,2.75,43_mccoys_steak_crisps.png,2.6,0,2098,72,47376,2.0,-269,1008,739,3,1,-0.1499999999999999,-0.105902875902246,0.1499999999999999,-1.1234600541907145,0.15314871809819267,-0.3247673051037968,1.5,1.08,2.58,3.66,5.35,1.08,2.58,2.75,2.6,0,81.67,56.67,100.0,61.67,0.6321723822177999,-0.4528350014515219,2.1424093440990584,1.588090183282184,1.4690784669448993,-0.7814808783447288,0.16733328694252594,0.8111748409526317,-0.4938594463040632,0.4938594463040632,0.6321723822177999,1.6027824279529446,1.4543766475869315,-0.7713539820562438,0.15488829126012704,0.4840598022183772,-0.7776182422047171,1.2649915334233934,-0.5415710170085074,1,1,0
151,3,187,25,33_walkers_smoky_bacon.png,3.0,24_twix.png,2.0,1,1863,74,1646,2.0,-807,1145,338,1,1,-1.0,-0.7060191726816406,1.0,-0.1406733858592155,0.22550244318395304,-0.4687441328905154,0.75,3.83,4.58,8.41,5.0,4.58,3.83,2.0,3.0,1,100.0,76.67,36.67,100.0,0.3160861911089,1.701722184085762,1.8997416190392948,0.8473380894993564,1.8655685789120355,1.3745408571614692,0.9411884755159442,-0.9040847346300256,-1.2632226656226284,1.2632226656226284,0.3160861911089,1.8501253952296333,0.8607535261228781,0.9267568523571016,1.3898779890152877,1.2649915334233934,0.16657065858012948,-1.4331212072865733,1.2679670113456531,1,0,0
