,Part,TrialN,PairID,L_Item,L_Value,R_Item,R_Value,ChosenITM,ChoiceRT,Conf,ConfRT,BlockCond,tDDT,L_IA_DT,R_IA_DT,tGSF,lastFixat,DV,zDV,absDV,zAbsDV,zConf,zChoiceRT,FamLeft,FamRight,Tot_Fam,Tot_Val,FamChosen,FamUnChosen,ValChosen,ValUnChosen,Correct,ZtotFam,ZtotVal,ZValCh,ZValUnCh,ZFamCh,ZFamUnCh,ztGSF,ztDDT,absDDT,ConfSplit,GSFMedSplit,DDTMedSplit,absDDTMedSplit,,higher,lower,,higher,lower,,higher,lower
0,1,1,14,116_boots_caramels.png,0.95,31_beef_jerky.png,2,1,3327,72,2427,2,-688,1874,1186,3,1,1.05,1.694430214,1.05,1.517552533,-0.016205609,0.09811172,1.08,4.83,5.91,2.95,4.83,1.08,2,0.95,0,-0.786974838,-0.071287268,1.15925035,-1.231099362,0.729319322,-1.870111015,0.335643363,-0.97689279,0.97689279,0,1,0,0,,0,-0.97689279,,0,-0.016205609,,0.335643363,0
1,1,2,44,102_propercorn_worcester.png,2.3,26_yorkie.png,1.7,1,3424,68,2443,2,564,1206,1770,3,2,-0.6,-0.968245837,0.6,0.264527506,-0.315386089,0.159174168,4.83,3.58,8.41,4,3.58,4.83,1.7,2.3,1,0.388316139,1.592082329,0.47228718,1.783837851,-0.167274525,0.736154046,0.335643363,0.793961129,0.793961129,0,0,1,1,,0.793961129,0,,0,-0.315386089,,0,0.335643363
2,1,3,51,59_crunchie.png,1.7,5_caramello.png,1.25,1,3691,68,3753,2,1071,1020,2091,1,2,-0.45,-0.726184377,0.45,-0.153147503,-0.315386089,0.327253276,5,2.83,7.83,2.95,2.83,5,1.25,1.7,1,0.115648632,-0.071287268,-0.558157576,0.443865756,-0.705230834,0.854304728,-1.156104918,1.511072101,1.511072101,0,0,1,1,,1.511072101,0,,0,-0.315386089,,0,-1.156104918
3,1,4,12,64_nestle_aero_mint.png,1.55,102_propercorn_worcester.png,2.3,0,8144,68,2981,2,-1493,4153,2660,4,1,0.75,1.210307296,0.75,0.682202515,-0.315386089,3.130460276,5,4.83,9.83,3.85,5,4.83,1.55,2.3,1,1.055881413,1.354458101,0.128805594,1.783837851,0.851256085,0.736154046,1.081517504,-2.115500941,2.115500941,0,1,0,1,,0,-2.115500941,,0,-0.315386089,,1.081517504,0
4,1,5,4,44_walkers_french_fries.png,2,111_propercorn_sweetnsalty.png,2,0,6559,88,2748,2,-2039,4063,2024,4,1,0,1.05E-17,0,-1.406172531,1.18051631,2.132687293,4.33,5,9.33,4,4.33,5,2,2,1,0.820823218,1.592082329,1.15925035,1.113851804,0.370681783,0.854304728,1.081517504,-2.887774296,2.887774296,1,0,0,1,,0,-2.887774296,,1.18051631,0,,0,1.081517504
5,1,6,39,50_nakd_rhubarb_and_custard.png,0.65,39_milkyway.png,1.25,0,5595,86,4134,2,-2305,3511,1206,3,1,0.6,0.968245837,0.6,0.264527506,1.03092607,1.525839876,0,4.08,4.08,1.9,0,4.08,0.65,1.25,1,-1.647287833,-1.734656866,-1.932083917,-0.561113315,-2.735119304,0.214901034,0.335643363,-3.264010032,3.264010032,1,0,1,1,,-3.264010032,0,,1.03092607,0,,0,0.335643363
6,1,7,59,54_milkyway_magic_stars.png,1.55,30_starburst_original.png,1.1,1,2470,78,2759,2,257,1102,1359,1,2,-0.45,-0.726184377,0.45,-0.153147503,0.43256511,-0.441378151,5,4.83,9.83,2.65,4.83,5,1.1,1.55,1,1.055881413,-0.546535725,-0.901639161,0.108872733,0.729319322,0.854304728,-1.156104918,0.359734169,0.359734169,1,1,0,1,,0,0.359734169,,0.43256511,0,,-1.156104918,0
7,1,8,16,116_boots_caramels.png,0.95,104_graze_sriracha.png,0.65,1,6091,72,2107,2,1331,1858,3189,2,2,-0.3,-0.484122918,0.3,-0.570822512,-0.016205609,1.838076721,1.08,0.33,1.41,1.6,0.33,1.08,0.65,0.95,1,-2.902498596,-2.209905323,-1.932083917,-1.231099362,-2.498418529,-1.870111015,-0.410230777,1.878821317,1.878821317,0,0,0,1,,0,1.878821317,,0,-0.016205609,,0,-0.410230777
8,1,9,1,62_cadbury_wispa.png,1.55,47_daim.png,1.7,1,4669,68,2732,2,686,1604,2290,3,2,0.15,0.242061459,0.15,-0.988497522,-0.315386089,0.94291383,3.33,3.83,7.16,3.25,3.83,3.33,1.7,1.55,0,-0.19932935,0.403961188,0.47228718,0.108872733,0.012044244,-0.306351979,0.335643363,0.966520376,0.966520376,0,0,0,1,,0,0.966520376,,0,-0.315386089,,0,0.335643363
9,1,10,48,44_walkers_french_fries.png,2,53_eat_natural_almond_apricot.png,1.1,1,4001,66,2461,2,2102,542,2644,1,2,-0.9,-1.452368755,0.9,1.099877524,-0.464976329,0.522401304,4.33,4.33,8.66,3.1,4.33,4.33,1.1,2,1,0.505845236,0.16633696,-0.901639161,1.113851804,0.370681783,0.388652038,-1.156104918,2.969339186,2.969339186,0,1,1,1,,2.969339186,0,,0,-0.464976329,,-1.156104918,0
10,1,11,37,13_fruit_pastilles.png,1.1,115_shapers_blueberry.png,1.1,0,3301,84,3204,2,-521,1595,1074,2,1,0,1.05E-17,0,-1.406172531,0.88133583,0.081744466,4.33,1.33,5.66,2.2,4.33,1.33,1.1,1.1,1,-0.904503936,-1.25940841,-0.901639161,-0.896106338,0.370681783,-1.696360011,-0.410230777,-0.74068464,0.74068464,1,1,0,1,,0,-0.74068464,,0.88133583,0,,-0.410230777,0
11,1,12,6,36_nature_valley_protein_bars.png,1.4,111_propercorn_sweetnsalty.png,2,0,2867,84,1828,2,-409,1385,976,2,1,0.6,0.968245837,0.6,0.264527506,0.88133583,-0.191462773,3.83,5,8.83,3.4,3.83,5,1.4,2,1,0.585765023,0.641585416,-0.214675991,1.113851804,0.012044244,0.854304728,-0.410230777,-0.582269593,0.582269593,1,0,1,1,,-0.582269593,0,,0.88133583,0,,0,-0.410230777
12,1,13,35,41_jelly_babies_berry_mix.png,1.85,40_nestle_rolo.png,1.1,1,3117,72,3481,2,75,1182,1257,3,2,-0.75,-1.210307296,0.75,0.682202515,-0.016205609,-0.034085331,4.58,4.08,8.66,2.95,4.08,4.58,1.1,1.85,1,0.505845236,-0.071287268,-0.901639161,0.77885878,0.191363013,0.562403042,0.335643363,0.102309718,0.102309718,0,1,0,1,,0,0.102309718,,0,-0.016205609,,0.335643363,0
13,1,14,45,51_smarties.png,1.7,43_mccoys_steak_crisps.png,2,1,10424,28,2052,2,-991,5054,4063,7,2,0.3,0.484122918,0.3,-0.570822512,-3.307190886,4.565742548,5,5,10,3.7,5,5,2,1.7,0,1.1358012,1.116833873,1.15925035,0.443865756,0.851256085,0.854304728,3.319139926,-1.405462069,1.405462069,0,0,0,1,,0,-1.405462069,,0,-3.307190886,,0,3.319139926
14,1,15,58,5_caramello.png,1.25,34_hobnob_flapjack.png,1.55,0,2754,70,1479,2,-379,1313,934,2,1,0.3,0.484122918,0.3,-0.570822512,-0.165795849,-0.262597377,2.83,1.08,3.91,2.8,2.83,1.08,1.25,1.55,1,-1.727207619,-0.308911497,-0.558157576,0.108872733,-0.705230834,-1.870111015,-0.410230777,-0.539836991,0.539836991,0,0,1,1,,-0.539836991,0,,0,-0.165795849,,0,-0.410230777
15,1,16,41,11_lindt_orange.png,2,59_crunchie.png,1.7,1,5836,58,2950,2,76,2458,2534,5,2,-0.3,-0.484122918,0.3,-0.570822512,-1.063337288,1.67755173,4.75,5,9.75,3.7,5,4.75,1.7,2,1,1.018272102,1.116833873,0.47228718,1.113851804,0.851256085,0.680553724,1.827391645,0.103724138,0.103724138,0,0,0,1,,0,0.103724138,,0,-1.063337288,,0,1.827391645
16,1,17,42,63_kitkat.png,1.85,19_pistachios.png,1.7,1,3931,56,3017,2,1039,1100,2139,3,2,-0.15,-0.242061459,0.15,-0.988497522,-1.212927528,0.478335621,5,4.33,9.33,3.55,4.33,5,1.7,1.85,1,0.820823218,0.879209645,0.47228718,0.77885878,0.370681783,0.854304728,0.335643363,1.465810659,1.465810659,0,1,0,1,,0,1.465810659,,0,-1.212927528,,0.335643363,0
17,1,18,52,42_dairy_milk_fruit_and_nut.png,1.55,38_milkybar.png,0.8,1,3602,72,1979,2,470,1290,1760,1,2,-0.75,-1.210307296,0.75,0.682202515,-0.016205609,0.271226907,4.33,4.33,8.66,2.35,4.33,4.33,0.8,1.55,1,0.505845236,-1.021784182,-1.588602331,0.108872733,0.370681783,0.388652038,-1.156104918,0.661005643,0.661005643,0,1,0,1,,0,0.661005643,,0,-0.016205609,,-1.156104918,0
18,1,19,49,52_discos_salt_vinegar.png,1.7,60_caramel_rice_crisps.png,1.4,0,5674,68,2473,2,946,1996,2942,4,1,-0.3,-0.484122918,0.3,-0.570822512,-0.315386089,1.575571147,4.58,3.08,7.66,3.1,4.58,3.08,1.7,1.4,0,0.035728846,0.16633696,0.47228718,-0.226120291,0.550000552,-0.480102983,1.081517504,1.334269593,1.334269593,0,1,0,1,,0,1.334269593,,0,-0.315386089,,1.081517504,0
19,1,20,33,26_yorkie.png,1.7,58_walnut_whip.png,1.1,1,2567,78,3611,2,945,512,1457,1,2,-0.6,-0.968245837,0.6,0.264527506,0.43256511,-0.380315704,3.58,0.33,3.91,2.8,0.33,3.58,1.1,1.7,1,-1.727207619,-0.308911497,-0.901639161,0.443865756,-2.498418529,-0.132600975,-1.156104918,1.332855173,1.332855173,1,1,0,1,,0,1.332855173,,0.43256511,0,,-1.156104918,0
20,1,21,7,30_starburst_original.png,1.1,62_cadbury_wispa.png,1.55,0,2097,70,3321,2,-452,1032,580,2,1,0.45,0.726184377,0.45,-0.153147503,-0.165795849,-0.676185295,4.83,3.33,8.16,2.65,4.83,3.33,1.1,1.55,1,0.270787041,-0.546535725,-0.901639161,0.108872733,0.729319322,-0.306351979,-0.410230777,-0.643089655,0.643089655,0,1,0,1,,0,-0.643089655,,0,-0.165795849,,-0.410230777,0
21,1,22,38,56_marshmallows.png,0.95,38_milkybar.png,0.8,0,3641,56,2259,2,-244,1672,1428,2,1,-0.15,-0.242061459,0.15,-0.988497522,-1.212927528,0.295777788,3.83,4.33,8.16,1.75,3.83,4.33,0.95,0.8,0,0.270787041,-1.972281095,-1.245120746,-1.566092386,0.012044244,0.388652038,-0.410230777,-0.348890282,0.348890282,0,0,0,1,,0,-0.348890282,,0,-1.212927528,,0,-0.410230777
22,1,23,47,51_smarties.png,1.7,34_hobnob_flapjack.png,1.55,1,4550,78,1403,2,-544,2188,1644,3,2,-0.15,-0.242061459,0.15,-0.988497522,0.43256511,0.868002167,5,1.08,6.08,3.25,1.08,5,1.55,1.7,1,-0.707055052,0.403961188,0.128805594,0.443865756,-1.96046222,0.854304728,0.335643363,-0.773216301,0.773216301,1,1,0,1,,0,-0.773216301,,0.43256511,0,,0.335643363,0
23,1,24,34,19_pistachios.png,1.7,110_bombay_mix.png,1.4,1,2973,62,2855,2,1171,592,1763,1,2,-0.3,-0.484122918,0.3,-0.570822512,-0.764156809,-0.124734738,4.33,3.58,7.91,3.1,3.58,4.33,1.4,1.7,1,0.153257943,0.16633696,-0.214675991,0.443865756,-0.167274525,0.388652038,-1.156104918,1.652514107,1.652514107,0,1,0,1,,0,1.652514107,,0,-0.764156809,,-1.156104918,0
24,1,25,15,57_food_doctor_mild_korma_crisps.png,1.25,108_chilli_nuts.png,1.7,0,2824,68,2666,2,99,1095,1194,2,1,0.45,0.726184377,0.45,-0.153147503,-0.315386089,-0.218531693,0.08,3.33,3.41,2.95,0.08,3.33,1.25,1.7,1,-1.962265815,-0.071287268,-0.558157576,0.443865756,-2.677737298,-0.306351979,-0.410230777,0.136255799,0.136255799,0,0,0,0,,0,0.136255799,,0,-0.315386089,,0,-0.410230777
25,1,26,5,113_walkers_cheese.png,2,32_snickers.png,2.3,0,3643,70,2331,2,-812,1858,1046,4,1,0.3,0.484122918,0.3,-0.570822512,-0.165795849,0.297036807,4.33,5,9.33,4.3,4.33,5,2,2.3,1,0.820823218,2.067330786,1.15925035,1.783837851,0.370681783,0.854304728,1.081517504,-1.152280878,1.152280878,0,1,1,0,,-1.152280878,0,,0,-0.165795849,,1.081517504,0
26,1,27,46,112_lindt_extra_creamy.png,1.85,104_graze_sriracha.png,0.65,1,2188,72,2191,2,389,680,1069,1,2,-1.2,-1.936491673,1.2,1.935227542,-0.016205609,-0.618899906,4.08,0.33,4.41,2.5,0.33,4.08,0.65,1.85,1,-1.492149424,-0.784159953,-1.932083917,0.77885878,-2.498418529,0.214901034,-1.156104918,0.546437618,0.546437618,1,1,1,0,,0.546437618,0,,-0.016205609,0,,-1.156104918,0
27,1,28,50,63_kitkat.png,1.85,20_crunch.png,1.1,1,3321,74,2863,2,1153,830,1983,3,2,-0.75,-1.210307296,0.75,0.682202515,0.133384631,0.094334662,5,0.83,5.83,2.95,0.83,5,1.1,1.85,1,-0.824584149,-0.071287268,-0.901639161,0.77885878,-2.13978099,0.854304728,0.335643363,1.627054546,1.627054546,1,0,1,0,,1.627054546,0,,0.133384631,0,,0,0.335643363
28,1,29,43,103_nakd_berry.png,1.85,35_mms_plain.png,2,0,6784,82,2539,2,-498,3186,2688,4,1,0.15,0.242061459,0.15,-0.988497522,0.73174559,2.27432699,2.58,4.83,7.41,3.85,2.58,4.83,1.85,2,1,-0.081800252,1.354458101,0.815768765,1.113851804,-0.884549603,0.736154046,1.081517504,-0.708152978,0.708152978,1,0,0,0,,0,-0.708152978,,0.73174559,0,,0,1.081517504
29,1,30,11,18_galaxy_bar.png,1.1,32_snickers.png,2.3,0,2314,82,2320,2,153,825,978,2,1,1.2,1.936491673,1.2,1.935227542,0.73174559,-0.539581675,4.75,5,9.75,3.4,4.75,5,1.1,2.3,1,1.018272102,0.641585416,-0.901639161,1.783837851,0.671937316,0.854304728,-0.410230777,0.212634483,0.212634483,1,0,0,0,,0,0.212634483,,0.73174559,0,,0,-0.410230777
30,1,31,8,115_shapers_blueberry.png,1.1,43_mccoys_steak_crisps.png,2,0,2952,80,1805,2,-929,1655,726,2,1,0.9,1.452368755,0.9,1.099877524,0.58215535,-0.137954443,1.33,5,6.33,3.1,1.33,5,1.1,2,1,-0.589525954,0.16633696,-0.901639161,1.113851804,-1.781143451,0.854304728,-0.410230777,-1.317768025,1.317768025,1,1,1,0,,-1.317768025,0,,0.58215535,0,,-0.410230777,0
31,1,32,60,57_food_doctor_mild_korma_crisps.png,1.25,110_bombay_mix.png,1.4,0,8388,46,2465,2,-549,4045,3496,4,1,0.15,0.242061459,0.15,-0.988497522,-1.960878727,3.284060659,0.08,3.58,3.66,2.65,0.08,3.58,1.25,1.4,1,-1.844736717,-0.546535725,-0.558157576,-0.226120291,-2.677737298,-0.132600975,1.081517504,-0.780288401,0.780288401,0,1,0,0,,0,-0.780288401,,0,-1.960878727,,1.081517504,0
32,1,33,13,117_yogurt_raisins.png,1.25,103_nakd_berry.png,1.85,1,5341,62,1571,2,-982,2754,1772,3,2,0.6,0.968245837,0.6,0.264527506,-0.764156809,1.365944394,3.08,2.58,5.66,3.1,2.58,3.08,1.85,1.25,0,-0.904503936,0.16633696,0.815768765,-0.561113315,-0.884549603,-0.480102983,0.335643363,-1.392732289,1.392732289,0,0,0,0,,0,-1.392732289,,0,-0.764156809,,0,0.335643363
33,1,34,57,40_nestle_rolo.png,1.1,48_mentos_mint.png,0.95,1,2183,74,2091,2,1729,638,2367,1,2,-0.15,-0.242061459,0.15,-0.988497522,0.133384631,-0.622047455,4.08,3.58,7.66,2.05,3.58,4.08,0.95,1.1,1,0.035728846,-1.497032638,-1.245120746,-0.896106338,-0.167274525,0.214901034,-1.156104918,2.441760502,2.441760502,1,1,0,0,,0,2.441760502,,0.133384631,0,,-1.156104918,0
34,1,35,10,48_mentos_mint.png,0.95,14_maltesers.png,1.85,0,3207,68,2466,2,438,1128,1566,2,1,0.9,1.452368755,0.9,1.099877524,-0.315386089,0.022570548,3.58,5,8.58,2.8,3.58,5,0.95,1.85,1,0.468235925,-0.308911497,-1.245120746,0.77885878,-0.167274525,0.854304728,-0.410230777,0.615744201,0.615744201,0,1,1,1,,0.615744201,0,,0,-0.315386089,,-0.410230777,0
35,1,36,36,58_walnut_whip.png,1.1,23_kp_grazing_mix.png,1.55,1,3224,58,3722,2,888,920,1808,3,2,0.45,0.726184377,0.45,-0.153147503,-1.063337288,0.033272214,0.33,2.58,2.91,2.65,2.58,0.33,1.55,1.1,0,-2.19732401,-0.546535725,0.128805594,-0.896106338,-0.884549603,-2.391364027,0.335643363,1.252233229,1.252233229,0,0,0,0,,0,1.252233229,,0,-1.063337288,,0,0.335643363
36,1,37,3,108_chilli_nuts.png,1.7,41_jelly_babies_berry_mix.png,1.85,1,3476,72,3189,2,-656,1748,1092,3,2,0.15,0.242061459,0.15,-0.988497522,-0.016205609,0.191908676,3.33,4.58,7.91,3.55,4.58,3.33,1.85,1.7,0,0.153257943,0.879209645,0.815768765,0.443865756,0.550000552,-0.306351979,0.335643363,-0.931631348,0.931631348,0,0,1,0,,-0.931631348,0,,0,-0.016205609,,0,0.335643363
37,1,38,9,50_nakd_rhubarb_and_custard.png,0.65,47_daim.png,1.7,0,2295,72,5333,2,-469,1159,690,2,1,1.05,1.694430214,1.05,1.517552533,-0.016205609,-0.551542361,0,3.83,3.83,2.35,0,3.83,0.65,1.7,1,-1.76481693,-1.021784182,-1.932083917,0.443865756,-2.735119304,0.041150029,-0.410230777,-0.667134796,0.667134796,0,0,1,0,,-0.667134796,0,,0,-0.016205609,,0,-0.410230777
38,1,39,2,107_graze_scream.png,1.55,109_kp_roast.png,2.3,0,3513,66,2712,2,-533,1753,1220,2,1,0.75,1.210307296,0.75,0.682202515,-0.464976329,0.215200537,2.83,5,7.83,3.85,2.83,5,1.55,2.3,1,0.115648632,1.354458101,0.128805594,1.783837851,-0.705230834,0.854304728,-0.410230777,-0.75765768,0.75765768,0,1,0,0,,0,-0.75765768,,0,-0.464976329,,-0.410230777,0
39,1,40,40,2_maynards_winegums.png,1.1,27_mars.png,0.95,1,4458,66,2996,2,172,1716,1888,3,2,-0.15,-0.242061459,0.15,-0.988497522,-0.464976329,0.810087269,4.08,4.58,8.66,2.05,4.58,4.08,0.95,1.1,1,0.505845236,-1.497032638,-1.245120746,-0.896106338,0.550000552,0.214901034,0.335643363,0.239508464,0.239508464,0,1,1,0,,0.239508464,0,,0,-0.464976329,,0.335643363,0
40,1,41,57,40_nestle_rolo.png,1.1,48_mentos_mint.png,0.95,0,2009,80,3501,1,-213,859,646,2,1,-0.15,-0.242061459,0.15,-0.988497522,0.58215535,-0.731582155,4.08,3.58,7.66,2.05,4.08,3.58,1.1,0.95,1,0.035728846,-1.497032638,-0.901639161,-1.231099362,0.191363013,-0.132600975,-0.410230777,-0.30504326,0.30504326,1,1,1,0,,-0.30504326,0,,0.58215535,0,,-0.410230777,0
41,1,42,41,11_lindt_orange.png,2,59_crunchie.png,1.7,0,3371,78,2463,1,-1516,2200,684,2,1,-0.3,-0.484122918,0.3,-0.570822512,0.43256511,0.12581015,4.75,5,9.75,3.7,4.75,5,2,1.7,1,1.018272102,1.116833873,1.15925035,0.443865756,0.671937316,0.854304728,-0.410230777,-2.148032603,2.148032603,1,0,0,0,,0,-2.148032603,,0.43256511,0,,0,-0.410230777
42,1,43,11,18_galaxy_bar.png,1.1,32_snickers.png,2.3,1,1700,82,2707,1,133,566,699,1,2,1.2,1.936491673,1.2,1.935227542,0.73174559,-0.926100673,4.75,5,9.75,3.4,5,4.75,2.3,1.1,1,1.018272102,0.641585416,1.84621352,-0.896106338,0.851256085,0.680553724,-1.156104918,0.184346082,0.184346082,1,0,0,0,,0,0.184346082,,0.73174559,0,,0,-1.156104918
43,1,44,60,57_food_doctor_mild_korma_crisps.png,1.25,110_bombay_mix.png,1.4,1,7466,42,2083,1,-133,3184,3051,5,2,0.15,0.242061459,0.15,-0.988497522,-2.260059207,2.703652653,0.08,3.58,3.66,2.65,3.58,0.08,1.4,1.25,1,-1.844736717,-0.546535725,-0.214675991,-0.561113315,-0.167274525,-2.565115031,1.827391645,-0.191889655,0.191889655,0,0,0,0,,0,-0.191889655,,0,-2.260059207,,0,1.827391645
44,1,45,5,113_walkers_cheese.png,2,32_snickers.png,2.3,1,1889,70,1681,1,-88,778,690,1,2,0.3,0.484122918,0.3,-0.570822512,-0.165795849,-0.807123327,4.33,5,9.33,4.3,5,4.33,2.3,2,1,0.820823218,2.067330786,1.84621352,1.113851804,0.851256085,0.388652038,-1.156104918,-0.128240752,0.128240752,0,0,0,0,,0,-0.128240752,,0,-0.165795849,,0,-1.156104918
45,1,46,3,108_chilli_nuts.png,1.7,41_jelly_babies_berry_mix.png,1.85,1,2227,74,1989,1,400,656,1056,1,2,0.15,0.242061459,0.15,-0.988497522,0.133384631,-0.594349025,3.33,4.58,7.91,3.55,4.58,3.33,1.85,1.7,1,0.153257943,0.879209645,0.815768765,0.443865756,0.550000552,-0.306351979,-1.156104918,0.561996238,0.561996238,1,1,0,1,,0,0.561996238,,0.133384631,0,,-1.156104918,0
46,1,47,46,112_lindt_extra_creamy.png,1.85,104_graze_sriracha.png,0.65,0,4259,70,2275,1,276,1668,1944,2,1,-1.2,-1.936491673,1.2,1.935227542,-0.165795849,0.684814825,4.08,0.33,4.41,2.5,4.08,0.33,1.85,0.65,1,-1.492149424,-0.784159953,0.815768765,-1.901085409,0.191363013,-2.391364027,-0.410230777,0.386608151,0.386608151,0,1,0,0,,0,0.386608151,,0,-0.165795849,,-0.410230777,0
47,1,48,52,42_dairy_milk_fruit_and_nut.png,1.55,38_milkybar.png,0.8,0,3505,76,2208,1,-1232,2046,814,2,1,-0.75,-1.210307296,0.75,0.682202515,0.28297487,0.210164459,4.33,4.33,8.66,2.35,4.33,4.33,1.55,0.8,1,0.505845236,-1.021784182,0.128805594,-1.566092386,0.370681783,0.388652038,-0.410230777,-1.746337305,1.746337305,1,0,0,0,,0,-1.746337305,,0.28297487,0,,0,-0.410230777
48,1,49,59,54_milkyway_magic_stars.png,1.55,30_starburst_original.png,1.1,0,2548,90,2177,1,-109,1093,984,2,1,-0.45,-0.726184377,0.45,-0.153147503,1.330106549,-0.392276389,5,4.83,9.83,2.65,5,4.83,1.55,1.1,1,1.055881413,-0.546535725,0.128805594,-0.896106338,0.851256085,0.736154046,-0.410230777,-0.157943574,0.157943574,1,1,0,0,,0,-0.157943574,,1.330106549,0,,-0.410230777,0
49,1,50,8,115_shapers_blueberry.png,1.1,43_mccoys_steak_crisps.png,2,1,3226,54,2619,1,-475,1598,1123,3,2,0.9,1.452368755,0.9,1.099877524,-1.362517768,0.034531234,1.33,5,6.33,3.1,5,1.33,2,1.1,1,-0.589525954,0.16633696,1.15925035,-0.896106338,0.851256085,-1.696360011,0.335643363,-0.675621317,0.675621317,0,0,1,0,,-0.675621317,0,,0,-1.362517768,,0,0.335643363
50,1,51,35,41_jelly_babies_berry_mix.png,1.85,40_nestle_rolo.png,1.1,0,4604,60,1663,1,-401,2117,1716,4,1,-0.75,-1.210307296,0.75,0.682202515,-0.913747048,0.901995695,4.58,4.08,8.66,2.95,4.58,4.08,1.85,1.1,1,0.505845236,-0.071287268,0.815768765,-0.896106338,0.550000552,0.214901034,1.081517504,-0.570954232,0.570954232,0,1,1,0,,-0.570954232,0,,0,-0.913747048,,1.081517504,0
51,1,52,14,116_boots_caramels.png,0.95,31_beef_jerky.png,2,0,6333,56,2889,1,-1359,3251,1892,4,1,1.05,1.694430214,1.05,1.517552533,-1.212927528,1.990418085,1.08,4.83,5.91,2.95,1.08,4.83,0.95,2,0,-0.786974838,-0.071287268,-1.245120746,1.113851804,-1.96046222,0.736154046,1.081517504,-1.925968653,1.925968653,0,0,1,0,,-1.925968653,0,,0,-1.212927528,,0,1.081517504
52,1,53,38,56_marshmallows.png,0.95,38_milkybar.png,0.8,0,5716,58,1441,1,-1054,2948,1894,4,1,-0.15,-0.242061459,0.15,-0.988497522,-1.063337288,1.602010558,3.83,4.33,8.16,1.75,3.83,4.33,0.95,0.8,1,0.270787041,-1.972281095,-1.245120746,-1.566092386,0.012044244,0.388652038,1.081517504,-1.494570533,1.494570533,0,0,1,0,,-1.494570533,0,,0,-1.063337288,,0,1.081517504
53,1,54,48,44_walkers_french_fries.png,2,53_eat_natural_almond_apricot.png,1.1,0,3562,80,1688,1,-1314,2180,866,2,1,-0.9,-1.452368755,0.9,1.099877524,0.58215535,0.246046516,4.33,4.33,8.66,3.1,4.33,4.33,2,1.1,1,0.505845236,0.16633696,1.15925035,-0.896106338,0.370681783,0.388652038,-0.410230777,-1.86231975,1.86231975,1,1,0,0,,0,-1.86231975,,0.58215535,0,,-0.410230777,0
54,1,55,50,63_kitkat.png,1.85,20_crunch.png,1.1,0,2447,94,2441,1,-323,1173,850,2,1,-0.75,-1.210307296,0.75,0.682202515,1.629287029,-0.455856876,5,0.83,5.83,2.95,5,0.83,1.85,1.1,1,-0.824584149,-0.071287268,0.815768765,-0.896106338,0.851256085,-2.043862019,-0.410230777,-0.460629467,0.460629467,1,0,1,0,,-0.460629467,0,,1.629287029,0,,0,-0.410230777
55,1,56,13,117_yogurt_raisins.png,1.25,103_nakd_berry.png,1.85,1,2120,48,2342,1,486,606,1092,1,2,0.6,0.968245837,0.6,0.264527506,-1.811288488,-0.66170657,3.08,2.58,5.66,3.1,2.58,3.08,1.85,1.25,1,-0.904503936,0.16633696,0.815768765,-0.561113315,-0.884549603,-0.480102983,-1.156104918,0.683636364,0.683636364,0,1,0,0,,0,0.683636364,,0,-1.811288488,,-1.156104918,0
56,1,57,4,44_walkers_french_fries.png,2,111_propercorn_sweetnsalty.png,2,1,6932,60,2057,1,-989,3262,2273,7,2,0,1.05E-17,0,-1.406172531,-0.913747048,2.367494436,4.33,5,9.33,4,5,4.33,2,2,1,0.820823218,1.592082329,1.15925035,1.113851804,0.851256085,0.388652038,3.319139926,-1.402633229,1.402633229,0,1,0,1,,0,-1.402633229,,0,-0.913747048,,3.319139926,0
57,1,58,15,57_food_doctor_mild_korma_crisps.png,1.25,108_chilli_nuts.png,1.7,1,4274,58,2353,1,429,1612,2041,3,2,0.45,0.726184377,0.45,-0.153147503,-1.063337288,0.694257471,0.08,3.33,3.41,2.95,3.33,0.08,1.7,1.25,1,-1.962265815,-0.071287268,0.47228718,-0.561113315,-0.346593295,-2.565115031,0.335643363,0.60301442,0.60301442,0,0,1,0,,0.60301442,0,,0,-1.063337288,,0,0.335643363
58,1,59,49,52_discos_salt_vinegar.png,1.7,60_caramel_rice_crisps.png,1.4,0,6854,62,1310,1,-1032,3542,2510,4,1,-0.3,-0.484122918,0.3,-0.570822512,-0.764156809,2.318392674,4.58,3.08,7.66,3.1,4.58,3.08,1.7,1.4,1,0.035728846,0.16633696,0.47228718,-0.226120291,0.550000552,-0.480102983,1.081517504,-1.463453292,1.463453292,0,1,1,0,,-1.463453292,0,,0,-0.764156809,,1.081517504,0
59,1,60,37,13_fruit_pastilles.png,1.1,115_shapers_blueberry.png,1.1,0,6698,66,2809,1,-1497,3459,1962,4,1,0,1.05E-17,0,-1.406172531,-0.464976329,2.22018915,4.33,1.33,5.66,2.2,4.33,1.33,1.1,1.1,1,-0.904503936,-1.25940841,-0.901639161,-0.896106338,0.370681783,-1.696360011,1.081517504,-2.121158621,2.121158621,0,0,0,0,,0,-2.121158621,,0,-0.464976329,,0,1.081517504
60,1,61,40,2_maynards_winegums.png,1.1,27_mars.png,0.95,0,2913,70,1767,1,-249,1325,1076,2,1,-0.15,-0.242061459,0.15,-0.988497522,-0.165795849,-0.162505324,4.08,4.58,8.66,2.05,4.08,4.58,1.1,0.95,1,0.505845236,-1.497032638,-0.901639161,-1.231099362,0.191363013,0.562403042,-0.410230777,-0.355962383,0.355962383,0,0,1,0,,-0.355962383,0,,0,-0.165795849,,0,-0.410230777
61,1,62,47,51_smarties.png,1.7,34_hobnob_flapjack.png,1.55,0,4513,52,1855,1,-1371,2589,1218,4,1,-0.15,-0.242061459,0.15,-0.988497522,-1.512108008,0.844710306,5,1.08,6.08,3.25,5,1.08,1.7,1.55,1,-0.707055052,0.403961188,0.47228718,0.108872733,0.851256085,-1.870111015,1.081517504,-1.942941693,1.942941693,0,0,1,0,,-1.942941693,0,,0,-1.512108008,,0,1.081517504
62,1,63,43,103_nakd_berry.png,1.85,35_mms_plain.png,2,1,2110,72,1571,1,361,674,1035,1,2,0.15,0.242061459,0.15,-0.988497522,-0.016205609,-0.668001668,2.58,4.83,7.41,3.85,4.83,2.58,2,1.85,1,-0.081800252,1.354458101,1.15925035,0.77885878,0.729319322,-0.827604991,-1.156104918,0.506833856,0.506833856,0,1,1,0,,0.506833856,0,,0,-0.016205609,,-1.156104918,0
63,1,64,34,19_pistachios.png,1.7,110_bombay_mix.png,1.4,0,3385,70,1517,1,-307,1389,1082,1,1,-0.3,-0.484122918,0.3,-0.570822512,-0.165795849,0.134623287,4.33,3.58,7.91,3.1,4.33,3.58,1.7,1.4,1,0.153257943,0.16633696,0.47228718,-0.226120291,0.370681783,-0.132600975,-1.156104918,-0.437998746,0.437998746,0,1,1,0,,-0.437998746,0,,0,-0.165795849,,-1.156104918,0
64,1,65,6,36_nature_valley_protein_bars.png,1.4,111_propercorn_sweetnsalty.png,2,1,2456,82,1369,1,613,688,1301,1,2,0.6,0.968245837,0.6,0.264527506,0.73174559,-0.450191288,3.83,5,8.83,3.4,5,3.83,2,1.4,1,0.585765023,0.641585416,1.15925035,-0.226120291,0.851256085,0.041150029,-1.156104918,0.863267712,0.863267712,1,0,1,0,,0.863267712,0,,0.73174559,0,,0,-1.156104918
65,1,66,42,63_kitkat.png,1.85,19_pistachios.png,1.7,0,2136,82,3149,1,-146,934,788,2,1,-0.15,-0.242061459,0.15,-0.988497522,0.73174559,-0.651634414,5,4.33,9.33,3.55,5,4.33,1.85,1.7,1,0.820823218,0.879209645,0.815768765,0.443865756,0.851256085,0.388652038,-0.410230777,-0.210277116,0.210277116,1,0,0,0,,0,-0.210277116,,0.73174559,0,,0,-0.410230777
66,1,67,36,58_walnut_whip.png,1.1,23_kp_grazing_mix.png,1.55,1,7010,74,3076,1,398,2716,3114,4,2,0.45,0.726184377,0.45,-0.153147503,0.133384631,2.416596198,0.33,2.58,2.91,2.65,2.58,0.33,1.55,1.1,1,-2.19732401,-0.546535725,0.128805594,-0.896106338,-0.884549603,-2.391364027,1.081517504,0.559167398,0.559167398,1,0,1,0,,0.559167398,0,,0.133384631,0,,0,1.081517504
67,1,68,16,116_boots_caramels.png,0.95,104_graze_sriracha.png,0.65,0,4784,58,2323,1,594,1718,2312,2,1,-0.3,-0.484122918,0.3,-0.570822512,-1.063337288,1.015307453,1.08,0.33,1.41,1.6,1.08,0.33,0.95,0.65,1,-2.902498596,-2.209905323,-1.245120746,-1.901085409,-1.96046222,-2.391364027,-0.410230777,0.836393731,0.836393731,0,1,1,1,,0.836393731,0,,0,-1.063337288,,-0.410230777,0
68,1,69,7,30_starburst_original.png,1.1,62_cadbury_wispa.png,1.55,1,2697,68,1864,1,431,958,1389,2,2,0.45,0.726184377,0.45,-0.153147503,-0.315386089,-0.298479434,4.83,3.33,8.16,2.65,3.33,4.83,1.55,1.1,1,0.270787041,-0.546535725,0.128805594,-0.896106338,-0.346593295,0.736154046,-0.410230777,0.60584326,0.60584326,0,0,1,0,,0.60584326,0,,0,-0.315386089,,0,-0.410230777
69,1,70,58,5_caramello.png,1.25,34_hobnob_flapjack.png,1.55,1,4654,48,2271,1,1377,1296,2673,3,2,0.3,0.484122918,0.3,-0.570822512,-1.811288488,0.933471183,2.83,1.08,3.91,2.8,1.08,2.83,1.55,1.25,1,-1.727207619,-0.308911497,0.128805594,-0.561113315,-1.96046222,-0.653853987,0.335643363,1.94388464,1.94388464,0,0,0,0,,0,1.94388464,,0,-1.811288488,,0,0.335643363
70,1,71,2,107_graze_scream.png,1.55,109_kp_roast.png,2.3,1,1916,90,3352,1,284,620,904,1,2,0.75,1.210307296,0.75,0.682202515,1.330106549,-0.790126563,2.83,5,7.83,3.85,5,2.83,2.3,1.55,1,0.115648632,1.354458101,1.84621352,0.108872733,0.851256085,-0.653853987,-1.156104918,0.397923511,0.397923511,1,0,1,0,,0.397923511,0,,1.330106549,0,,0,-1.156104918
71,1,72,51,59_crunchie.png,1.7,5_caramello.png,1.25,0,2033,80,3897,1,-345,951,606,2,1,-0.45,-0.726184377,0.45,-0.153147503,0.58215535,-0.71647392,5,2.83,7.83,2.95,5,2.83,1.7,1.25,1,0.115648632,-0.071287268,0.47228718,-0.561113315,0.851256085,-0.653853987,-0.410230777,-0.491746709,0.491746709,1,0,0,0,,0,-0.491746709,,0.58215535,0,,0,-0.410230777
72,1,73,10,48_mentos_mint.png,0.95,14_maltesers.png,1.85,1,1441,80,2484,1,52,514,566,1,2,0.9,1.452368755,0.9,1.099877524,0.58215535,-1.089143703,3.58,5,8.58,2.8,5,3.58,1.85,0.95,1,0.468235925,-0.308911497,0.815768765,-1.231099362,0.851256085,-0.132600975,-1.156104918,0.069778056,0.069778056,1,1,1,0,,0.069778056,0,,0.58215535,0,,-1.156104918,0
73,1,74,39,50_nakd_rhubarb_and_custard.png,0.65,39_milkyway.png,1.25,1,3579,76,1792,1,-447,1624,1177,5,2,0.6,0.968245837,0.6,0.264527506,0.28297487,0.256748182,0,4.08,4.08,1.9,4.08,0,1.25,0.65,1,-1.647287833,-1.734656866,-0.558157576,-1.901085409,0.191363013,-2.620715353,1.827391645,-0.636017555,0.636017555,1,1,0,0,,0,-0.636017555,,0.28297487,0,,1.827391645,0
74,1,75,45,51_smarties.png,1.7,43_mccoys_steak_crisps.png,2,1,7377,48,3060,1,-1097,3619,2522,4,1,0.3,0.484122918,0.3,-0.570822512,-1.811288488,2.647626283,5,5,10,3.7,5,5,2,1.7,1,1.1358012,1.116833873,1.15925035,0.443865756,0.851256085,0.854304728,1.081517504,-1.555390596,1.555390596,0,1,1,0,,-1.555390596,0,,0,-1.811288488,,1.081517504,0
75,1,76,44,102_propercorn_worcester.png,2.3,26_yorkie.png,1.7,0,2921,62,2942,1,-120,1282,1162,2,1,-0.6,-0.968245837,0.6,0.264527506,-0.764156809,-0.157469246,4.83,3.58,8.41,4,4.83,3.58,2.3,1.7,1,0.388316139,1.592082329,1.84621352,0.443865756,0.729319322,-0.132600975,-0.410230777,-0.173502194,0.173502194,0,0,0,0,,0,-0.173502194,,0,-0.764156809,,0,-0.410230777
76,1,77,12,64_nestle_aero_mint.png,1.55,102_propercorn_worcester.png,2.3,0,6398,54,4096,1,-1078,3234,2156,4,1,0.75,1.210307296,0.75,0.682202515,-1.362517768,2.03133622,5,4.83,9.83,3.85,5,4.83,1.55,2.3,0,1.055881413,1.354458101,0.128805594,1.783837851,0.851256085,0.736154046,1.081517504,-1.528516615,1.528516615,0,1,1,0,,-1.528516615,0,,0,-1.362517768,,1.081517504,0
77,1,78,9,50_nakd_rhubarb_and_custard.png,0.65,47_daim.png,1.7,1,2919,72,3229,1,1028,704,1732,1,2,1.05,1.694430214,1.05,1.517552533,-0.016205609,-0.158728265,0,3.83,3.83,2.35,3.83,0,1.7,0.65,1,-1.76481693,-1.021784182,0.47228718,-1.901085409,0.012044244,-2.620715353,-1.156104918,1.450252038,1.450252038,0,0,1,0,,1.450252038,0,,0,-0.016205609,,0,-1.156104918
78,1,79,1,62_cadbury_wispa.png,1.55,47_daim.png,1.7,0,4737,76,2358,1,-573,2273,1700,4,1,0.15,0.242061459,0.15,-0.988497522,0.28297487,0.985720494,3.33,3.83,7.16,3.25,3.33,3.83,1.55,1.7,0,-0.19932935,0.403961188,0.128805594,0.443865756,-0.346593295,0.041150029,1.081517504,-0.814234483,0.814234483,1,1,1,1,,-0.814234483,0,,0.28297487,0,,1.081517504,0
79,1,80,33,26_yorkie.png,1.7,58_walnut_whip.png,1.1,0,3459,82,2203,1,-48,1414,1366,2,1,-0.6,-0.968245837,0.6,0.264527506,0.73174559,0.18120701,3.58,0.33,3.91,2.8,3.58,0.33,1.7,1.1,1,-1.727207619,-0.308911497,0.47228718,-0.896106338,-0.167274525,-2.391364027,-0.410230777,-0.07166395,0.07166395,1,0,1,0,,-0.07166395,0,,0.73174559,0,,0,-0.410230777
80,1,81,7,62_cadbury_wispa.png,1.55,30_starburst_original.png,1.1,1,2348,82,1872,2,196,836,1032,1,2,-0.45,-0.726184377,0.45,-0.153147503,0.73174559,-0.518178343,3.33,4.83,8.16,2.65,4.83,3.33,1.1,1.55,1,0.270787041,-0.546535725,-0.901639161,0.108872733,0.729319322,-0.306351979,-1.156104918,0.273454546,0.273454546,1,1,1,0,,0.273454546,0,,0.73174559,0,,-1.156104918,0
81,1,82,34,110_bombay_mix.png,1.4,19_pistachios.png,1.7,0,2809,64,2956,2,-930,1498,568,2,1,0.3,0.484122918,0.3,-0.570822512,-0.614566569,-0.22797434,3.58,4.33,7.91,3.1,3.58,4.33,1.4,1.7,1,0.153257943,0.16633696,-0.214675991,0.443865756,-0.167274525,0.388652038,-0.410230777,-1.319182446,1.319182446,0,0,1,0,,-1.319182446,0,,0,-0.614566569,,0,-0.410230777
82,1,83,33,58_walnut_whip.png,1.1,26_yorkie.png,1.7,0,1992,78,2819,2,-471,1049,578,2,1,0.6,0.968245837,0.6,0.264527506,0.43256511,-0.742283821,0.33,3.58,3.91,2.8,0.33,3.58,1.1,1.7,1,-1.727207619,-0.308911497,-0.901639161,0.443865756,-2.498418529,-0.132600975,-0.410230777,-0.669963637,0.669963637,1,0,1,0,,-0.669963637,0,,0.43256511,0,,0,-0.410230777
83,1,84,10,14_maltesers.png,1.85,48_mentos_mint.png,0.95,1,1534,88,1986,2,-734,1578,844,1,2,-0.9,-1.452368755,0.9,1.099877524,1.18051631,-1.030599295,5,3.58,8.58,2.8,3.58,5,0.95,1.85,1,0.468235925,-0.308911497,-1.245120746,0.77885878,-0.167274525,0.854304728,-1.156104918,-1.041956113,1.041956113,1,1,1,0,,-1.041956113,0,,1.18051631,0,,-1.156104918,0
84,1,85,31,27_mars.png,0.95,109_kp_roast.png,2.3,0,3023,80,2073,2,-375,1475,1100,2,1,1.35,2.178553132,1.35,2.352902551,0.58215535,-0.093259249,4.58,5,9.58,3.25,4.58,5,0.95,2.3,1,0.938352316,0.403961188,-1.245120746,1.783837851,0.550000552,0.854304728,-0.410230777,-0.534179311,0.534179311,1,1,0,0,,0,-0.534179311,,0.58215535,0,,-0.410230777,0
85,1,86,4,111_propercorn_sweetnsalty.png,2,44_walkers_french_fries.png,2,0,3452,84,2307,2,-825,1857,1032,4,1,0,1.05E-17,0,-1.406172531,0.88133583,0.176800441,5,4.33,9.33,4,5,4.33,2,2,1,0.820823218,1.592082329,1.15925035,1.113851804,0.851256085,0.388652038,1.081517504,-1.170668339,1.170668339,1,1,1,0,,-1.170668339,0,,0.88133583,0,,1.081517504,0
86,1,87,55,45_gb_ginger.png,2,23_kp_grazing_mix.png,1.55,1,3961,78,1829,2,403,1484,1887,3,2,-0.45,-0.726184377,0.45,-0.153147503,0.43256511,0.497220914,4.83,2.58,7.41,3.55,2.58,4.83,1.55,2,1,-0.081800252,0.879209645,0.128805594,1.113851804,-0.884549603,0.736154046,0.335643363,0.566239499,0.566239499,1,0,0,0,,0,0.566239499,,0.43256511,0,,0,0.335643363
87,1,88,8,43_mccoys_steak_crisps.png,2,115_shapers_blueberry.png,1.1,1,2636,68,2174,2,146,984,1130,3,2,-0.9,-1.452368755,0.9,1.099877524,-0.315386089,-0.33687953,5,1.33,6.33,3.1,1.33,5,1.1,2,1,-0.589525954,0.16633696,-0.901639161,1.113851804,-1.781143451,0.854304728,0.335643363,0.202733542,0.202733542,0,0,0,0,,0,0.202733542,,0,-0.315386089,,0,0.335643363
88,1,89,54,11_lindt_orange.png,2,2_maynards_winegums.png,1.1,1,1898,76,1720,2,143,708,851,1,2,-0.9,-1.452368755,0.9,1.099877524,0.28297487,-0.801457739,4.75,4.08,8.83,3.1,4.08,4.75,1.1,2,1,0.585765023,0.16633696,-0.901639161,1.113851804,0.191363013,0.680553724,-1.156104918,0.198490282,0.198490282,1,0,0,0,,0,0.198490282,,0.28297487,0,,0,-1.156104918
89,1,90,11,32_snickers.png,2.3,18_galaxy_bar.png,1.1,1,1725,82,1565,2,39,652,691,1,2,-1.2,-1.936491673,1.2,1.935227542,0.73174559,-0.910362929,5,4.75,9.75,3.4,4.75,5,1.1,2.3,1,1.018272102,0.641585416,-0.901639161,1.783837851,0.671937316,0.854304728,-1.156104918,0.051390596,0.051390596,1,0,1,1,,0.051390596,0,,0.73174559,0,,0,-1.156104918
90,1,91,5,32_snickers.png,2.3,113_walkers_cheese.png,2,1,4336,52,3990,2,-151,1932,1781,5,2,-0.3,-0.484122918,0.3,-0.570822512,-1.512108008,0.733287077,5,4.33,9.33,4.3,4.33,5,2,2.3,1,0.820823218,2.067330786,1.15925035,1.783837851,0.370681783,0.854304728,1.827391645,-0.217349216,0.217349216,0,1,0,0,,0,-0.217349216,,0,-1.512108008,,1.827391645,0
91,1,92,57,48_mentos_mint.png,0.95,40_nestle_rolo.png,1.1,0,2037,64,2046,2,-464,1024,560,2,1,0.15,0.242061459,0.15,-0.988497522,-0.614566569,-0.713955881,3.58,4.08,7.66,2.05,3.58,4.08,0.95,1.1,1,0.035728846,-1.497032638,-1.245120746,-0.896106338,-0.167274525,0.214901034,-0.410230777,-0.660062696,0.660062696,0,0,1,0,,-0.660062696,0,,0,-0.614566569,,0,-0.410230777
92,1,93,32,55_bassetts_licorice_allsorts.png,0.35,24_twix.png,1.85,0,2479,86,1253,2,-270,1144,874,2,1,1.5,2.420614591,1.5,2.770577561,1.03092607,-0.435712563,4.33,5,9.33,2.2,4.33,5,0.35,1.85,1,0.820823218,-1.25940841,-2.619047087,0.77885878,0.370681783,0.854304728,-0.410230777,-0.385665204,0.385665204,1,0,0,0,,0,-0.385665204,,1.03092607,0,,0,-0.410230777
93,1,94,2,109_kp_roast.png,2.3,107_graze_scream.png,1.55,1,3389,66,2600,2,248,1312,1560,3,2,-0.75,-1.210307296,0.75,0.682202515,-0.464976329,0.137141326,5,2.83,7.83,3.85,2.83,5,1.55,2.3,1,0.115648632,1.354458101,0.128805594,1.783837851,-0.705230834,0.854304728,0.335643363,0.347004389,0.347004389,0,1,1,0,,0.347004389,0,,0,-0.464976329,,0.335643363,0
94,1,95,25,52_discos_salt_vinegar.png,1.7,45_gb_ginger.png,2,0,2339,70,2130,2,-107,1003,896,2,1,0.3,0.484122918,0.3,-0.570822512,-0.165795849,-0.523843931,4.58,4.83,9.41,3.7,4.58,4.83,1.7,2,1,0.858432529,1.116833873,0.47228718,1.113851804,0.550000552,0.736154046,-0.410230777,-0.155114734,0.155114734,0,1,1,0,,-0.155114734,0,,0,-0.165795849,,-0.410230777,0
95,1,96,24,112_lindt_extra_creamy.png,1.85,24_twix.png,1.85,0,3609,54,1947,2,-1228,2118,890,4,1,0,1.05E-17,0,-1.406172531,-1.362517768,0.275633475,4.08,5,9.08,3.7,4.08,5,1.85,1.85,1,0.70329412,1.116833873,0.815768765,0.77885878,0.191363013,0.854304728,1.081517504,-1.740679624,1.740679624,0,1,1,0,,-1.740679624,0,,0,-1.362517768,,1.081517504,0
96,1,97,12,102_propercorn_worcester.png,2.3,64_nestle_aero_mint.png,1.55,1,7371,40,1335,2,-986,3730,2744,7,2,-0.75,-1.210307296,0.75,0.682202515,-2.409649447,2.643849225,4.83,5,9.83,3.85,5,4.83,1.55,2.3,1,1.055881413,1.354458101,0.128805594,1.783837851,0.851256085,0.736154046,3.319139926,-1.398389969,1.398389969,0,1,1,0,,-1.398389969,0,,0,-2.409649447,,3.319139926,0
97,1,98,21,42_dairy_milk_fruit_and_nut.png,1.55,10_hula_hoops_bbq_beef.png,2,0,2520,58,1447,2,-918,1632,714,2,1,0.45,0.726184377,0.45,-0.153147503,-1.063337288,-0.409902663,4.33,5,9.33,3.55,4.33,5,1.55,2,1,0.820823218,0.879209645,0.128805594,1.113851804,0.370681783,0.854304728,-0.410230777,-1.302209405,1.302209405,0,0,1,0,,-1.302209405,0,,0,-1.063337288,,0,-0.410230777
98,1,99,6,111_propercorn_sweetnsalty.png,2,36_nature_valley_protein_bars.png,1.4,1,1761,70,726,2,197,584,781,1,2,-0.6,-0.968245837,0.6,0.264527506,-0.165795849,-0.887700577,5,3.83,8.83,3.4,3.83,5,1.4,2,1,0.585765023,0.641585416,-0.214675991,1.113851804,0.012044244,0.854304728,-1.156104918,0.274868966,0.274868966,0,0,0,0,,0,0.274868966,,0,-0.165795849,,0,-1.156104918
99,1,100,3,41_jelly_babies_berry_mix.png,1.85,108_chilli_nuts.png,1.7,1,2593,78,1573,2,1099,552,1651,1,2,-0.15,-0.242061459,0.15,-0.988497522,0.43256511,-0.36394845,4.58,3.33,7.91,3.55,3.33,4.58,1.7,1.85,1,0.153257943,0.879209645,0.47228718,0.77885878,-0.346593295,0.562403042,-1.156104918,1.550675863,1.550675863,1,0,1,0,,1.550675863,0,,0.43256511,0,,0,-1.156104918
100,1,101,36,23_kp_grazing_mix.png,1.55,58_walnut_whip.png,1.1,1,5772,38,1945,2,-1766,3436,1670,3,2,-0.45,-0.726184377,0.45,-0.153147503,-2.559239687,1.637263105,2.58,0.33,2.91,2.65,0.33,2.58,1.1,1.55,1,-2.19732401,-0.546535725,-0.901639161,0.108872733,-2.498418529,-0.827604991,0.335643363,-2.501637618,2.501637618,0,1,1,1,,-2.501637618,0,,0,-2.559239687,,0.335643363,0
101,1,102,28,13_fruit_pastilles.png,1.1,15_jacobs_mini_cheddars.png,1.85,0,1945,62,1639,2,-209,941,732,2,1,0.75,1.210307296,0.75,0.682202515,-0.764156809,-0.77187078,4.33,4.83,9.16,2.95,4.33,4.83,1.1,1.85,1,0.740903432,-0.071287268,-0.901639161,0.77885878,0.370681783,0.736154046,-0.410230777,-0.29938558,0.29938558,0,0,1,0,,-0.29938558,0,,0,-0.764156809,,0,-0.410230777
102,1,103,18,29_mms_peanut.png,1.1,55_bassetts_licorice_allsorts.png,0.35,1,1621,98,1488,2,251,532,783,1,2,-0.75,-1.210307296,0.75,0.682202515,1.928467509,-0.975831945,5,4.33,9.33,1.45,4.33,5,0.35,1.1,1,0.820823218,-2.447529551,-2.619047087,-0.896106338,0.370681783,0.854304728,-1.156104918,0.351247649,0.351247649,1,1,1,0,,0.351247649,0,,1.928467509,0,,-1.156104918,0
103,1,104,56,64_nestle_aero_mint.png,1.55,36_nature_valley_protein_bars.png,1.4,1,2952,68,1844,2,10,1226,1236,3,2,-0.15,-0.242061459,0.15,-0.988497522,-0.315386089,-0.137954443,5,3.83,8.83,2.95,3.83,5,1.4,1.55,1,0.585765023,-0.071287268,-0.214675991,0.108872733,0.012044244,0.854304728,0.335643363,0.010372414,0.010372414,0,1,1,0,,0.010372414,0,,0,-0.315386089,,0.335643363,0
104,1,105,26,25_wonderful_almonds.png,1.25,113_walkers_cheese.png,2,0,2725,76,2763,2,-888,1568,680,2,1,0.75,1.210307296,0.75,0.682202515,0.28297487,-0.28085316,4.58,4.33,8.91,3.25,4.58,4.33,1.25,2,1,0.623374334,0.403961188,-0.558157576,1.113851804,0.550000552,0.388652038,-0.410230777,-1.259776803,1.259776803,1,1,1,0,,-1.259776803,0,,0.28297487,0,,-0.410230777,0
105,1,106,59,30_starburst_original.png,1.1,54_milkyway_magic_stars.png,1.55,0,2591,70,1196,2,-652,1380,728,2,1,0.45,0.726184377,0.45,-0.153147503,-0.165795849,-0.365207469,4.83,5,9.83,2.65,4.83,5,1.1,1.55,1,1.055881413,-0.546535725,-0.901639161,0.108872733,0.729319322,0.854304728,-0.410230777,-0.925973668,0.925973668,0,1,1,0,,-0.925973668,0,,0,-0.165795849,,-0.410230777,0
106,1,107,17,60_caramel_rice_crisps.png,1.4,20_crunch.png,1.1,1,3523,64,3762,2,303,1428,1731,4,2,-0.3,-0.484122918,0.3,-0.570822512,-0.614566569,0.221495635,3.08,0.83,3.91,2.5,0.83,3.08,1.1,1.4,1,-1.727207619,-0.784159953,-0.901639161,-0.226120291,-2.13978099,-0.480102983,1.081517504,0.424797492,0.424797492,0,1,1,0,,0.424797492,0,,0,-0.614566569,,1.081517504,0
107,1,108,20,25_wonderful_almonds.png,1.25,53_eat_natural_almond_apricot.png,1.1,0,7082,74,3691,2,-334,3290,2956,6,1,-0.15,-0.242061459,0.15,-0.988497522,0.133384631,2.461920902,4.58,4.33,8.91,2.35,4.58,4.33,1.25,1.1,0,0.623374334,-1.021784182,-0.558157576,-0.896106338,0.550000552,0.388652038,2.573265785,-0.476188088,0.476188088,1,1,1,0,,-0.476188088,0,,0.133384631,0,,2.573265785,0
108,1,109,58,34_hobnob_flapjack.png,1.55,5_caramello.png,1.25,1,4066,88,1163,2,416,1434,1850,2,2,-0.3,-0.484122918,0.3,-0.570822512,1.18051631,0.563319439,1.08,2.83,3.91,2.8,2.83,1.08,1.25,1.55,1,-1.727207619,-0.308911497,-0.558157576,0.108872733,-0.705230834,-1.870111015,-0.410230777,0.584626959,0.584626959,1,1,0,0,,0,0.584626959,,1.18051631,0,,-0.410230777,0
109,1,110,27,39_milkyway.png,1.25,10_hula_hoops_bbq_beef.png,2,0,2602,64,463,2,-1020,1582,562,2,1,0.75,1.210307296,0.75,0.682202515,-0.614566569,-0.358282862,4.08,5,9.08,3.25,4.08,5,1.25,2,1,0.70329412,0.403961188,-0.558157576,1.113851804,0.191363013,0.854304728,-0.410230777,-1.446480251,1.446480251,0,0,0,0,,0,-1.446480251,,0,-0.614566569,,0,-0.410230777
110,1,111,60,110_bombay_mix.png,1.4,57_food_doctor_mild_korma_crisps.png,1.25,1,3239,54,3138,2,226,1050,1276,2,2,-0.15,-0.242061459,0.15,-0.988497522,-1.362517768,0.042714861,3.58,0.08,3.66,2.65,0.08,3.58,1.25,1.4,1,-1.844736717,-0.546535725,-0.558157576,-0.226120291,-2.677737298,-0.132600975,-0.410230777,0.315887147,0.315887147,0,1,0,0,,0,0.315887147,,0,-1.362517768,,-0.410230777,0
111,1,112,53,107_graze_scream.png,1.55,54_milkyway_magic_stars.png,1.55,0,1943,72,3236,2,-327,925,598,2,1,0,1.05E-17,0,-1.406172531,-0.016205609,-0.773129799,2.83,5,7.83,3.1,2.83,5,1.55,1.55,1,0.115648632,0.16633696,0.128805594,0.108872733,-0.705230834,0.854304728,-0.410230777,-0.466287147,0.466287147,0,1,1,1,,-0.466287147,0,,0,-0.016205609,,-0.410230777,0
112,1,113,22,15_jacobs_mini_cheddars.png,1.85,31_beef_jerky.png,2,0,3627,72,2388,2,-857,1929,1072,4,1,0.15,0.242061459,0.15,-0.988497522,-0.016205609,0.286964651,4.83,4.83,9.66,3.85,4.83,4.83,1.85,2,1,0.975961627,1.354458101,0.815768765,1.113851804,0.729319322,0.736154046,1.081517504,-1.215929781,1.215929781,0,0,1,1,,-1.215929781,0,,0,-0.016205609,,0,1.081517504
113,1,114,1,47_daim.png,1.7,62_cadbury_wispa.png,1.55,0,6245,36,2173,2,-894,3118,2224,6,1,-0.15,-0.242061459,0.15,-0.988497522,-2.708829927,1.935021225,3.83,3.33,7.16,3.25,3.83,3.33,1.7,1.55,0,-0.19932935,0.403961188,0.47228718,0.108872733,0.012044244,-0.306351979,2.573265785,-1.268263323,1.268263323,0,1,0,0,,0,-1.268263323,,0,-2.708829927,,2.573265785,0
114,1,115,23,14_maltesers.png,1.85,33_walkers_smoky_bacon.png,1.55,1,4574,62,2994,2,-1204,2580,1376,3,2,-0.3,-0.484122918,0.3,-0.570822512,-0.764156809,0.883110402,5,3.83,8.83,3.4,3.83,5,1.55,1.85,1,0.585765023,0.641585416,0.128805594,0.77885878,0.012044244,0.854304728,0.335643363,-1.706733543,1.706733543,0,1,1,0,,-1.706733543,0,,0,-0.764156809,,0.335643363,0
115,1,116,9,47_daim.png,1.7,50_nakd_rhubarb_and_custard.png,0.65,1,4327,78,2822,2,-239,1950,1711,4,2,-1.05,-1.694430214,1.05,1.517552533,0.43256511,0.727621489,3.83,0,3.83,2.35,0,3.83,0.65,1.7,1,-1.76481693,-1.021784182,-1.932083917,0.443865756,-2.735119304,0.041150029,1.081517504,-0.341818182,0.341818182,1,1,1,0,,-0.341818182,0,,0.43256511,0,,1.081517504,0
116,1,117,29,29_mms_peanut.png,1.1,35_mms_plain.png,2,0,6247,38,2440,2,-67,3388,3321,5,1,0.9,1.452368755,0.9,1.099877524,-2.559239687,1.936280245,5,4.83,9.83,3.1,5,4.83,1.1,2,1,1.055881413,0.16633696,-0.901639161,1.113851804,0.851256085,0.736154046,1.827391645,-0.098537931,0.098537931,0,0,1,0,,-0.098537931,0,,0,-2.559239687,,0,1.827391645
117,1,118,19,18_galaxy_bar.png,1.1,117_yogurt_raisins.png,1.25,0,2353,50,2173,2,-290,1082,792,2,1,0.15,0.242061459,0.15,-0.988497522,-1.661698248,-0.515030794,4.75,3.08,7.83,2.35,4.75,3.08,1.1,1.25,1,0.115648632,-1.021784182,-0.901639161,-0.561113315,0.671937316,-0.480102983,-0.410230777,-0.413953605,0.413953605,0,0,1,0,,-0.413953605,0,,0,-1.661698248,,0,-0.410230777
118,1,119,30,56_marshmallows.png,0.95,33_walkers_smoky_bacon.png,1.55,0,4758,52,2395,2,-1165,2515,1350,4,1,0.6,0.968245837,0.6,0.264527506,-1.512108008,0.998940199,3.83,3.83,7.66,2.5,3.83,3.83,0.95,1.55,1,0.035728846,-0.784159953,-1.245120746,0.108872733,0.012044244,0.041150029,1.081517504,-1.65157116,1.65157116,0,1,1,0,,-1.65157116,0,,0,-1.512108008,,1.081517504,0
119,1,120,35,40_nestle_rolo.png,1.1,41_jelly_babies_berry_mix.png,1.85,0,2715,88,1241,2,-928,1600,672,2,1,0.75,1.210307296,0.75,0.682202515,1.18051631,-0.287148258,4.08,4.58,8.66,2.95,4.08,4.58,1.1,1.85,1,0.505845236,-0.071287268,-0.901639161,0.77885878,0.191363013,0.562403042,-0.410230777,-1.316353605,1.316353605,1,0,0,0,,0,-1.316353605,,1.18051631,0,,0,-0.410230777
120,1,121,24,112_lindt_extra_creamy.png,1.85,24_twix.png,1.85,1,3454,58,1357,1,1240,916,2156,3,2,0,1.05E-17,0,-1.406172531,-1.063337288,0.178059461,4.08,5,9.08,3.7,5,4.08,1.85,1.85,1,0.70329412,1.116833873,0.815768765,0.77885878,0.851256085,0.214901034,0.335643363,1.750109091,1.750109091,0,1,1,0,,1.750109091,0,,0,-1.063337288,,0.335643363,0
121,1,122,1,47_daim.png,1.7,62_cadbury_wispa.png,1.55,1,2478,60,2166,1,195,902,1097,4,2,-0.15,-0.242061459,0.15,-0.988497522,-0.913747048,-0.436342073,3.83,3.33,7.16,3.25,3.33,3.83,1.55,1.7,0,-0.19932935,0.403961188,0.128805594,0.443865756,-0.346593295,0.041150029,1.081517504,0.272040125,0.272040125,0,0,0,0,,0,0.272040125,,0,-0.913747048,,0,1.081517504
122,1,123,28,13_fruit_pastilles.png,1.1,15_jacobs_mini_cheddars.png,1.85,1,1728,56,1719,1,377,484,861,1,2,0.75,1.210307296,0.75,0.682202515,-1.212927528,-0.9084744,4.33,4.83,9.16,2.95,4.83,4.33,1.85,1.1,1,0.740903432,-0.071287268,0.815768765,-0.896106338,0.729319322,0.388652038,-1.156104918,0.529464577,0.529464577,0,0,1,0,,0.529464577,0,,0,-1.212927528,,0,-1.156104918
123,1,124,3,41_jelly_babies_berry_mix.png,1.85,108_chilli_nuts.png,1.7,0,2014,74,1177,1,-267,943,676,2,1,-0.15,-0.242061459,0.15,-0.988497522,0.133384631,-0.728434606,4.58,3.33,7.91,3.55,4.58,3.33,1.85,1.7,1,0.153257943,0.879209645,0.815768765,0.443865756,0.550000552,-0.306351979,-0.410230777,-0.381421944,0.381421944,1,1,0,1,,0,-0.381421944,,0.133384631,0,,-0.410230777,0
124,1,125,57,48_mentos_mint.png,0.95,40_nestle_rolo.png,1.1,1,519,88,3180,1,-201,201,0,0,1,0.15,0.242061459,0.15,-0.988497522,1.18051631,-1.66955171,3.58,4.08,7.66,2.05,4.08,3.58,1.1,0.95,1,0.035728846,-1.497032638,-0.901639161,-1.231099362,0.191363013,-0.132600975,-1.901979059,-0.28807022,0.28807022,1,0,0,0,,0,-0.28807022,,1.18051631,0,,0,-1.901979059
125,1,126,19,18_galaxy_bar.png,1.1,117_yogurt_raisins.png,1.25,1,5492,64,2395,1,385,2198,2583,5,2,0.15,0.242061459,0.15,-0.988497522,-0.614566569,1.461000369,4.75,3.08,7.83,2.35,3.08,4.75,1.25,1.1,1,0.115648632,-1.021784182,-0.558157576,-0.896106338,-0.525912064,0.680553724,1.827391645,0.540779937,0.540779937,0,1,0,0,,0,0.540779937,,0,-0.614566569,,1.827391645,0
126,1,127,33,58_walnut_whip.png,1.1,26_yorkie.png,1.7,1,3216,70,2004,1,-84,1330,1246,3,2,0.6,0.968245837,0.6,0.264527506,-0.165795849,0.028236136,0.33,3.58,3.91,2.8,3.58,0.33,1.7,1.1,1,-1.727207619,-0.308911497,0.47228718,-0.896106338,-0.167274525,-2.391364027,0.335643363,-0.122583072,0.122583072,0,0,1,0,,-0.122583072,0,,0,-0.165795849,,0,0.335643363
127,1,128,17,60_caramel_rice_crisps.png,1.4,20_crunch.png,1.1,0,2185,68,2332,1,-327,1051,724,2,1,-0.3,-0.484122918,0.3,-0.570822512,-0.315386089,-0.620788435,3.08,0.83,3.91,2.5,3.08,0.83,1.4,1.1,1,-1.727207619,-0.784159953,-0.214675991,-0.896106338,-0.525912064,-2.043862019,-0.410230777,-0.466287147,0.466287147,0,1,1,0,,-0.466287147,0,,0,-0.315386089,,-0.410230777,0
128,1,129,5,32_snickers.png,2.3,113_walkers_cheese.png,2,0,1467,92,2002,1,-118,568,450,3,1,-0.3,-0.484122918,0.3,-0.570822512,1.479696789,-1.072776449,5,4.33,9.33,4.3,5,4.33,2.3,2,1,0.820823218,2.067330786,1.84621352,1.113851804,0.851256085,0.388652038,0.335643363,-0.170673354,0.170673354,1,0,1,0,,-0.170673354,0,,1.479696789,0,,0,0.335643363
129,1,130,9,47_daim.png,1.7,50_nakd_rhubarb_and_custard.png,0.65,0,1707,84,1641,1,-104,732,628,2,1,-1.05,-1.694430214,1.05,1.517552533,0.88133583,-0.921694105,3.83,0,3.83,2.35,3.83,0,1.7,0.65,1,-1.76481693,-1.021784182,0.47228718,-1.901085409,0.012044244,-2.620715353,-0.410230777,-0.150871473,0.150871473,1,0,1,0,,-0.150871473,0,,0.88133583,0,,0,-0.410230777
130,1,131,59,30_starburst_original.png,1.1,54_milkyway_magic_stars.png,1.55,1,1472,80,1840,1,426,512,938,2,2,0.45,0.726184377,0.45,-0.153147503,0.58215535,-1.0696289,4.83,5,9.83,2.65,5,4.83,1.55,1.1,1,1.055881413,-0.546535725,0.128805594,-0.896106338,0.851256085,0.736154046,-0.410230777,0.59877116,0.59877116,1,1,1,0,,0.59877116,0,,0.58215535,0,,-0.410230777,0
131,1,132,8,43_mccoys_steak_crisps.png,2,115_shapers_blueberry.png,1.1,0,2425,78,1365,1,608,1025,1633,2,1,-0.9,-1.452368755,0.9,1.099877524,0.43256511,-0.469706091,5,1.33,6.33,3.1,5,1.33,2,1.1,1,-0.589525954,0.16633696,1.15925035,-0.896106338,0.851256085,-1.696360011,-0.410230777,0.856195612,0.856195612,1,1,0,0,,0,0.856195612,,0.43256511,0,,-0.410230777,0
132,1,133,12,102_propercorn_worcester.png,2.3,64_nestle_aero_mint.png,1.55,1,5621,46,1895,1,-133,2386,2253,6,2,-0.75,-1.210307296,0.75,0.682202515,-1.960878727,1.54220713,4.83,5,9.83,3.85,5,4.83,1.55,2.3,0,1.055881413,1.354458101,0.128805594,1.783837851,0.851256085,0.736154046,2.573265785,-0.191889655,0.191889655,0,0,0,0,,0,-0.191889655,,0,-1.960878727,,0,2.573265785
133,1,134,30,56_marshmallows.png,0.95,33_walkers_smoky_bacon.png,1.55,1,3216,66,2019,1,4,1610,1614,4,2,0.6,0.968245837,0.6,0.264527506,-0.464976329,0.028236136,3.83,3.83,7.66,2.5,3.83,3.83,1.55,0.95,1,0.035728846,-0.784159953,0.128805594,-1.231099362,0.012044244,0.041150029,1.081517504,0.001885893,0.001885893,0,0,0,0,,0,0.001885893,,0,-0.464976329,,0,1.081517504
134,1,135,31,27_mars.png,0.95,109_kp_roast.png,2.3,1,3167,78,2131,1,333,1164,1497,3,2,1.35,2.178553132,1.35,2.352902551,0.43256511,-0.002609843,4.58,5,9.58,3.25,5,4.58,2.3,0.95,1,0.938352316,0.403961188,1.84621352,-1.231099362,0.851256085,0.562403042,0.335643363,0.467230094,0.467230094,1,1,0,1,,0,0.467230094,,0.43256511,0,,0.335643363,0
135,1,136,18,29_mms_peanut.png,1.1,55_bassetts_licorice_allsorts.png,0.35,0,1939,92,1377,1,-324,932,608,2,1,-0.75,-1.210307296,0.75,0.682202515,1.479696789,-0.775647838,5,4.33,9.33,1.45,5,4.33,1.1,0.35,1,0.820823218,-2.447529551,-0.901639161,-2.571071457,0.851256085,0.388652038,-0.410230777,-0.462043887,0.462043887,1,0,0,0,,0,-0.462043887,,1.479696789,0,,0,-0.410230777
136,1,137,56,64_nestle_aero_mint.png,1.55,36_nature_valley_protein_bars.png,1.4,0,2066,90,2201,1,-213,941,728,2,1,-0.15,-0.242061459,0.15,-0.988497522,1.330106549,-0.695700098,5,3.83,8.83,2.95,5,3.83,1.55,1.4,1,0.585765023,-0.071287268,0.128805594,-0.226120291,0.851256085,0.041150029,-0.410230777,-0.30504326,0.30504326,1,1,0,0,,0,-0.30504326,,1.330106549,0,,-0.410230777,0
137,1,138,26,25_wonderful_almonds.png,1.25,113_walkers_cheese.png,2,1,1561,76,3172,1,-7,672,665,1,2,0.75,1.210307296,0.75,0.682202515,0.28297487,-1.013602531,4.58,4.33,8.91,3.25,4.33,4.58,2,1.25,1,0.623374334,0.403961188,1.15925035,-0.561113315,0.370681783,0.562403042,-1.156104918,-0.013672727,0.013672727,1,0,1,0,,-0.013672727,0,,0.28297487,0,,0,-1.156104918
138,1,139,23,14_maltesers.png,1.85,33_walkers_smoky_bacon.png,1.55,0,2037,70,1694,1,-350,986,636,2,1,-0.3,-0.484122918,0.3,-0.570822512,-0.165795849,-0.713955881,5,3.83,8.83,3.4,5,3.83,1.85,1.55,1,0.585765023,0.641585416,0.815768765,0.108872733,0.851256085,0.041150029,-0.410230777,-0.498818809,0.498818809,0,0,1,0,,-0.498818809,0,,0,-0.165795849,,0,-0.410230777
139,1,140,22,15_jacobs_mini_cheddars.png,1.85,31_beef_jerky.png,2,1,3620,76,1704,1,-99,1546,1447,4,2,0.15,0.242061459,0.15,-0.988497522,0.28297487,0.282558083,4.83,4.83,9.66,3.85,4.83,4.83,2,1.85,1,0.975961627,1.354458101,1.15925035,0.77885878,0.729319322,0.736154046,1.081517504,-0.143799373,0.143799373,1,0,1,0,,-0.143799373,0,,0.28297487,0,,0,1.081517504
140,1,141,32,55_bassetts_licorice_allsorts.png,0.35,24_twix.png,1.85,1,1235,90,1756,1,-31,452,421,1,2,1.5,2.420614591,1.5,2.770577561,1.330106549,-1.218822716,4.33,5,9.33,2.2,5,4.33,1.85,0.35,1,0.820823218,-1.25940841,0.815768765,-2.571071457,0.851256085,0.388652038,-1.156104918,-0.047618809,0.047618809,1,1,0,0,,0,-0.047618809,,1.330106549,0,,-1.156104918,0
141,1,142,34,110_bombay_mix.png,1.4,19_pistachios.png,1.7,1,3726,80,1524,1,-923,2006,1083,3,2,0.3,0.484122918,0.3,-0.570822512,0.58215535,0.349286118,3.58,4.33,7.91,3.1,4.33,3.58,1.7,1.4,1,0.153257943,0.16633696,0.47228718,-0.226120291,0.370681783,-0.132600975,0.335643363,-1.309281505,1.309281505,1,0,1,0,,-1.309281505,0,,0.58215535,0,,0,0.335643363
142,1,143,20,25_wonderful_almonds.png,1.25,53_eat_natural_almond_apricot.png,1.1,1,1764,90,1256,1,516,444,960,1,2,-0.15,-0.242061459,0.15,-0.988497522,1.330106549,-0.885812048,4.58,4.33,8.91,2.35,4.33,4.58,1.1,1.25,0,0.623374334,-1.021784182,-0.901639161,-0.561113315,0.370681783,0.562403042,-1.156104918,0.726068966,0.726068966,1,0,1,0,,0.726068966,0,,1.330106549,0,,0,-1.156104918
143,1,144,6,111_propercorn_sweetnsalty.png,2,36_nature_valley_protein_bars.png,1.4,0,4016,78,1129,1,608,1754,2362,3,1,-0.6,-0.968245837,0.6,0.264527506,0.43256511,0.531843951,5,3.83,8.83,3.4,5,3.83,2,1.4,1,0.585765023,0.641585416,1.15925035,-0.226120291,0.851256085,0.041150029,0.335643363,0.856195612,0.856195612,1,0,1,0,,0.856195612,0,,0.43256511,0,,0,0.335643363
144,1,145,29,29_mms_peanut.png,1.1,35_mms_plain.png,2,1,2365,76,1450,1,644,1004,1648,2,2,0.9,1.452368755,0.9,1.099877524,0.28297487,-0.507476677,5,4.83,9.83,3.1,4.83,5,2,1.1,1,1.055881413,0.16633696,1.15925035,-0.896106338,0.729319322,0.854304728,-0.410230777,0.907114734,0.907114734,1,0,0,0,,0,0.907114734,,0.28297487,0,,0,-0.410230777
145,1,146,53,107_graze_scream.png,1.55,54_milkyway_magic_stars.png,1.55,1,1583,90,587,1,124,540,664,1,2,0,1.05E-17,0,-1.406172531,1.330106549,-0.999753316,2.83,5,7.83,3.1,5,2.83,1.55,1.55,1,0.115648632,0.16633696,0.128805594,0.108872733,0.851256085,-0.653853987,-1.156104918,0.171616301,0.171616301,1,1,0,1,,0,0.171616301,,1.330106549,0,,-1.156104918,0
146,1,147,58,34_hobnob_flapjack.png,1.55,5_caramello.png,1.25,0,5406,62,1761,1,-996,3098,2102,4,1,-0.3,-0.484122918,0.3,-0.570822512,-0.764156809,1.406862529,1.08,2.83,3.91,2.8,1.08,2.83,1.55,1.25,1,-1.727207619,-0.308911497,0.128805594,-0.561113315,-1.96046222,-0.653853987,1.081517504,-1.41253417,1.41253417,0,0,1,0,,-1.41253417,0,,0,-0.764156809,,0,1.081517504
147,1,148,27,39_milkyway.png,1.25,10_hula_hoops_bbq_beef.png,2,1,2418,80,1029,1,123,832,955,1,2,0.75,1.210307296,0.75,0.682202515,0.58215535,-0.474112659,4.08,5,9.08,3.25,5,4.08,2,1.25,1,0.70329412,0.403961188,1.15925035,-0.561113315,0.851256085,0.214901034,-1.156104918,0.170201881,0.170201881,1,0,1,0,,0.170201881,0,,0.58215535,0,,0,-1.156104918
148,1,149,60,110_bombay_mix.png,1.4,57_food_doctor_mild_korma_crisps.png,1.25,0,5198,54,1864,1,-1433,3091,1658,5,1,-0.15,-0.242061459,0.15,-0.988497522,-1.362517768,1.275924497,3.58,0.08,3.66,2.65,3.58,0.08,1.4,1.25,1,-1.844736717,-0.546535725,-0.214675991,-0.561113315,-0.167274525,-2.565115031,1.827391645,-2.030635737,2.030635737,0,1,1,0,,-2.030635737,0,,0,-1.362517768,,1.827391645,0
149,1,150,35,40_nestle_rolo.png,1.1,41_jelly_babies_berry_mix.png,1.85,1,4101,88,1372,1,831,1622,2453,2,2,0.75,1.210307296,0.75,0.682202515,1.18051631,0.585352281,4.08,4.58,8.66,2.95,4.58,4.08,1.85,1.1,1,0.505845236,-0.071287268,0.815768765,-0.896106338,0.550000552,0.214901034,-0.410230777,1.171611286,1.171611286,1,0,1,0,,1.171611286,0,,1.18051631,0,,0,-0.410230777
150,1,151,21,42_dairy_milk_fruit_and_nut.png,1.55,10_hula_hoops_bbq_beef.png,2,1,3167,70,2147,1,429,1268,1697,3,2,0.45,0.726184377,0.45,-0.153147503,-0.165795849,-0.002609843,4.33,5,9.33,3.55,5,4.33,2,1.55,1,0.820823218,0.879209645,1.15925035,0.108872733,0.851256085,0.388652038,0.335643363,0.60301442,0.60301442,0,0,1,0,,0.60301442,0,,0,-0.165795849,,0,0.335643363
151,1,152,10,14_maltesers.png,1.85,48_mentos_mint.png,0.95,0,1675,86,1834,1,1001,763,1764,2,1,-0.9,-1.452368755,0.9,1.099877524,1.03092607,-0.941838417,5,3.58,8.58,2.8,5,3.58,1.85,0.95,1,0.468235925,-0.308911497,0.815768765,-1.231099362,0.851256085,-0.132600975,-0.410230777,1.412062696,1.412062696,1,0,0,0,,0,1.412062696,,1.03092607,0,,0,-0.410230777
152,1,153,25,52_discos_salt_vinegar.png,1.7,45_gb_ginger.png,2,1,1655,96,792,1,206,518,724,1,2,0.3,0.484122918,0.3,-0.570822512,1.778877269,-0.954428613,4.58,4.83,9.41,3.7,4.83,4.58,2,1.7,1,0.858432529,1.116833873,1.15925035,0.443865756,0.729319322,0.562403042,-1.156104918,0.287598746,0.287598746,1,0,1,0,,0.287598746,0,,1.778877269,0,,0,-1.156104918
153,1,154,36,23_kp_grazing_mix.png,1.55,58_walnut_whip.png,1.1,0,1870,86,1446,1,292,1128,1420,1,1,-0.45,-0.726184377,0.45,-0.153147503,1.03092607,-0.819084012,2.58,0.33,2.91,2.65,2.58,0.33,1.55,1.1,1,-2.19732401,-0.546535725,0.128805594,-0.896106338,-0.884549603,-2.391364027,-1.156104918,0.409238872,0.409238872,1,0,0,0,,0,0.409238872,,1.03092607,0,,0,-1.156104918
154,1,155,7,62_cadbury_wispa.png,1.55,30_starburst_original.png,1.1,0,2637,90,2037,1,552,1322,1874,3,1,-0.45,-0.726184377,0.45,-0.153147503,1.330106549,-0.33625002,3.33,4.83,8.16,2.65,3.33,4.83,1.55,1.1,1,0.270787041,-0.546535725,0.128805594,-0.896106338,-0.346593295,0.736154046,0.335643363,0.776988088,0.776988088,1,0,1,0,,0.776988088,0,,1.330106549,0,,0,0.335643363
155,1,156,4,111_propercorn_sweetnsalty.png,2,44_walkers_french_fries.png,2,1,3613,68,1735,1,1016,1596,2612,4,2,0,1.05E-17,0,-1.406172531,-0.315386089,0.278151514,5,4.33,9.33,4,4.33,5,2,2,1,0.820823218,1.592082329,1.15925035,1.113851804,0.370681783,0.854304728,1.081517504,1.433278997,1.433278997,0,0,1,1,,1.433278997,0,,0,-0.315386089,,0,1.081517504
156,1,157,2,109_kp_roast.png,2.3,107_graze_scream.png,1.55,0,1854,84,1447,1,115,789,904,2,1,-0.75,-1.210307296,0.75,0.682202515,0.88133583,-0.829156169,5,2.83,7.83,3.85,5,2.83,2.3,1.55,1,0.115648632,1.354458101,1.84621352,0.108872733,0.851256085,-0.653853987,-0.410230777,0.15888652,0.15888652,1,0,1,1,,0.15888652,0,,0.88133583,0,,0,-0.410230777
157,1,158,55,45_gb_ginger.png,2,23_kp_grazing_mix.png,1.55,0,1999,68,2203,1,-254,916,662,2,1,-0.45,-0.726184377,0.45,-0.153147503,-0.315386089,-0.737877252,4.83,2.58,7.41,3.55,4.83,2.58,2,1.55,1,-0.081800252,0.879209645,1.15925035,0.108872733,0.729319322,-0.827604991,-0.410230777,-0.363034483,0.363034483,0,0,0,1,,0,-0.363034483,,0,-0.315386089,,0,-0.410230777
158,1,159,54,11_lindt_orange.png,2,2_maynards_winegums.png,1.1,0,1979,82,1999,1,747,1060,1807,1,1,-0.9,-1.452368755,0.9,1.099877524,0.73174559,-0.750467448,4.75,4.08,8.83,3.1,4.75,4.08,2,1.1,1,0.585765023,0.16633696,1.15925035,-0.896106338,0.671937316,0.214901034,-1.156104918,1.0528,1.0528,1,1,1,1,,1.0528,0,,0.73174559,0,,-1.156104918,0
159,1,160,11,32_snickers.png,2.3,18_galaxy_bar.png,1.1,0,1987,90,3510,1,949,934,1883,2,1,-1.2,-1.936491673,1.2,1.935227542,1.330106549,-0.74543137,5,4.75,9.75,3.4,5,4.75,2.3,1.1,1,1.018272102,0.641585416,1.84621352,-0.896106338,0.851256085,0.680553724,-0.410230777,1.338512853,1.338512853,1,1,0,1,,0,1.338512853,,1.330106549,0,,-0.410230777,0
160,1,161,18,55_bassetts_licorice_allsorts.png,0.35,29_mms_peanut.png,1.1,0,1573,96,1570,2,-537,859,322,2,1,0.75,1.210307296,0.75,0.682202515,1.778877269,-1.006048414,4.33,5,9.33,1.45,4.33,5,0.35,1.1,1,0.820823218,-2.447529551,-2.619047087,-0.896106338,0.370681783,0.854304728,-0.410230777,-0.763315361,0.763315361,1,0,1,1,,-0.763315361,0,,1.778877269,0,,0,-0.410230777
161,1,162,24,24_twix.png,1.85,112_lindt_extra_creamy.png,1.85,1,1712,64,1959,2,184,556,740,1,2,0,1.05E-17,0,-1.406172531,-0.614566569,-0.918546556,5,4.08,9.08,3.7,4.08,5,1.85,1.85,1,0.70329412,1.116833873,0.815768765,0.77885878,0.191363013,0.854304728,-1.156104918,0.256481505,0.256481505,0,1,1,1,,0.256481505,0,,0,-0.614566569,,-1.156104918,0
162,1,163,47,34_hobnob_flapjack.png,1.55,51_smarties.png,1.7,0,2040,54,2211,2,-125,859,734,2,1,0.15,0.242061459,0.15,-0.988497522,-1.362517768,-0.712067352,1.08,5,6.08,3.25,1.08,5,1.55,1.7,1,-0.707055052,0.403961188,0.128805594,0.443865756,-1.96046222,0.854304728,-0.410230777,-0.180574295,0.180574295,0,1,0,1,,0,-0.180574295,,0,-1.362517768,,-0.410230777,0
163,1,164,22,31_beef_jerky.png,2,15_jacobs_mini_cheddars.png,1.85,1,2372,56,1728,2,262,846,1108,3,2,-0.15,-0.242061459,0.15,-0.988497522,-1.212927528,-0.503070109,4.83,4.83,9.66,3.85,4.83,4.83,1.85,2,1,0.975961627,1.354458101,0.815768765,1.113851804,0.729319322,0.736154046,0.335643363,0.36680627,0.36680627,0,0,1,1,,0.36680627,0,,0,-1.212927528,,0,0.335643363
164,1,165,45,43_mccoys_steak_crisps.png,2,51_smarties.png,1.7,0,4185,50,3388,2,-22,1808,1786,4,1,-0.3,-0.484122918,0.3,-0.570822512,-1.661698248,0.638231102,5,5,10,3.7,5,5,2,1.7,0,1.1358012,1.116833873,1.15925035,0.443865756,0.851256085,0.854304728,1.081517504,-0.034889028,0.034889028,0,1,1,1,,-0.034889028,0,,0,-1.661698248,,1.081517504,0
165,1,166,20,53_eat_natural_almond_apricot.png,1.1,25_wonderful_almonds.png,1.25,1,3429,64,3669,2,273,1314,1587,3,2,0.15,0.242061459,0.15,-0.988497522,-0.614566569,0.162321717,4.33,4.58,8.91,2.35,4.58,4.33,1.25,1.1,0,0.623374334,-1.021784182,-0.558157576,-0.896106338,0.550000552,0.388652038,0.335643363,0.38236489,0.38236489,0,1,0,1,,0,0.38236489,,0,-0.614566569,,0.335643363,0
166,1,167,56,36_nature_valley_protein_bars.png,1.4,64_nestle_aero_mint.png,1.55,0,2044,80,1964,2,-161,875,714,2,1,0.15,0.242061459,0.15,-0.988497522,0.58215535,-0.709549313,3.83,5,8.83,2.95,3.83,5,1.4,1.55,1,0.585765023,-0.071287268,-0.214675991,0.108872733,0.012044244,0.854304728,-0.410230777,-0.231493417,0.231493417,1,1,0,1,,0,-0.231493417,,0.58215535,0,,-0.410230777,0
167,1,168,14,31_beef_jerky.png,2,116_boots_caramels.png,0.95,1,2542,70,2892,2,20,1016,1036,4,2,-1.05,-1.694430214,1.05,1.517552533,-0.165795849,-0.396053448,4.83,1.08,5.91,2.95,1.08,4.83,0.95,2,1,-0.786974838,-0.071287268,-1.245120746,1.113851804,-1.96046222,0.736154046,1.081517504,0.024516614,0.024516614,0,1,0,1,,0,0.024516614,,0,-0.165795849,,1.081517504,0
168,1,169,26,113_walkers_cheese.png,2,25_wonderful_almonds.png,1.25,1,1576,82,1612,2,173,530,703,1,2,-0.75,-1.210307296,0.75,0.682202515,0.73174559,-1.004159884,4.33,4.58,8.91,3.25,4.58,4.33,1.25,2,1,0.623374334,0.403961188,-0.558157576,1.113851804,0.550000552,0.388652038,-1.156104918,0.240922884,0.240922884,1,0,1,1,,0.240922884,0,,0.73174559,0,,0,-1.156104918
169,1,170,37,115_shapers_blueberry.png,1.1,13_fruit_pastilles.png,1.1,0,2497,76,1610,2,6,1006,1012,2,1,0,1.05E-17,0,-1.406172531,0.28297487,-0.424381388,1.33,4.33,5.66,2.2,1.33,4.33,1.1,1.1,1,-0.904503936,-1.25940841,-0.901639161,-0.896106338,-1.781143451,0.388652038,-0.410230777,0.004714734,0.004714734,1,0,1,1,,0.004714734,0,,0.28297487,0,,0,-0.410230777
170,1,171,28,15_jacobs_mini_cheddars.png,1.85,13_fruit_pastilles.png,1.1,1,2511,76,1333,2,518,768,1286,3,2,-0.75,-1.210307296,0.75,0.682202515,0.28297487,-0.415568251,4.83,4.33,9.16,2.95,4.33,4.83,1.1,1.85,1,0.740903432,-0.071287268,-0.901639161,0.77885878,0.370681783,0.736154046,0.335643363,0.728897806,0.728897806,1,1,1,1,,0.728897806,0,,0.28297487,0,,0.335643363,0
171,1,172,53,54_milkyway_magic_stars.png,1.55,107_graze_scream.png,1.55,1,1564,78,1576,2,221,504,725,1,2,0,1.05E-17,0,-1.406172531,0.43256511,-1.011714002,5,2.83,7.83,3.1,2.83,5,1.55,1.55,1,0.115648632,0.16633696,0.128805594,0.108872733,-0.705230834,0.854304728,-1.156104918,0.308815047,0.308815047,1,1,0,1,,0,0.308815047,,0.43256511,0,,-1.156104918,0
172,1,173,30,33_walkers_smoky_bacon.png,1.55,56_marshmallows.png,0.95,1,1616,76,4288,2,1165,502,1667,1,2,-0.6,-0.968245837,0.6,0.264527506,0.28297487,-0.978979494,3.83,3.83,7.66,2.5,3.83,3.83,0.95,1.55,1,0.035728846,-0.784159953,-1.245120746,0.108872733,0.012044244,0.041150029,-1.156104918,1.644027587,1.644027587,1,0,0,1,,0,1.644027587,,0.28297487,0,,0,-1.156104918
173,1,174,25,45_gb_ginger.png,2,52_discos_salt_vinegar.png,1.7,1,2987,66,1358,2,348,1326,1674,3,2,-0.3,-0.484122918,0.3,-0.570822512,-0.464976329,-0.115921601,4.83,4.58,9.41,3.7,4.58,4.83,1.7,2,1,0.858432529,1.116833873,0.47228718,1.113851804,0.550000552,0.736154046,0.335643363,0.488446395,0.488446395,0,0,0,1,,0,0.488446395,,0,-0.464976329,,0,0.335643363
174,1,175,41,59_crunchie.png,1.7,11_lindt_orange.png,2,0,3625,60,2051,2,-120,1730,1610,4,1,0.3,0.484122918,0.3,-0.570822512,-0.913747048,0.285705631,5,4.75,9.75,3.7,5,4.75,1.7,2,1,1.018272102,1.116833873,0.47228718,1.113851804,0.851256085,0.680553724,1.081517504,-0.173502194,0.173502194,0,1,0,1,,0,-0.173502194,,0,-0.913747048,,1.081517504,0
175,1,176,48,53_eat_natural_almond_apricot.png,1.1,44_walkers_french_fries.png,2,0,2226,78,1982,2,35,905,940,3,1,0.9,1.452368755,0.9,1.099877524,0.43256511,-0.594978535,4.33,4.33,8.66,3.1,4.33,4.33,1.1,2,1,0.505845236,0.16633696,-0.901639161,1.113851804,0.370681783,0.388652038,0.335643363,0.045732915,0.045732915,1,1,1,1,,0.045732915,0,,0.43256511,0,,0.335643363,0
176,1,177,52,38_milkybar.png,0.8,42_dairy_milk_fruit_and_nut.png,1.55,0,2179,76,2943,2,-64,904,840,2,1,0.75,1.210307296,0.75,0.682202515,0.28297487,-0.624565494,4.33,4.33,8.66,2.35,4.33,4.33,0.8,1.55,1,0.505845236,-1.021784182,-1.588602331,0.108872733,0.370681783,0.388652038,-0.410230777,-0.094294671,0.094294671,1,0,0,1,,0,-0.094294671,,0.28297487,0,,0,-0.410230777
177,1,178,46,104_graze_sriracha.png,0.65,112_lindt_extra_creamy.png,1.85,0,1847,88,1817,2,-365,923,558,2,1,1.2,1.936491673,1.2,1.935227542,1.18051631,-0.833562737,0.33,4.08,4.41,2.5,0.33,4.08,0.65,1.85,1,-1.492149424,-0.784159953,-1.932083917,0.77885878,-2.498418529,0.214901034,-0.410230777,-0.52003511,0.52003511,1,0,0,1,,0,-0.52003511,,1.18051631,0,,0,-0.410230777
178,1,179,39,39_milkyway.png,1.25,50_nakd_rhubarb_and_custard.png,0.65,1,1569,90,1861,2,-274,730,456,1,2,-0.6,-0.968245837,0.6,0.264527506,1.330106549,-1.008566453,4.08,0,4.08,1.9,0,4.08,0.65,1.25,1,-1.647287833,-1.734656866,-1.932083917,-0.561113315,-2.735119304,0.214901034,-1.156104918,-0.391322884,0.391322884,1,0,1,1,,-0.391322884,0,,1.330106549,0,,0,-1.156104918
179,1,180,54,2_maynards_winegums.png,1.1,11_lindt_orange.png,2,0,2371,64,2150,2,-536,1154,618,3,1,0.9,1.452368755,0.9,1.099877524,-0.614566569,-0.503699618,4.08,4.75,8.83,3.1,4.08,4.75,1.1,2,1,0.585765023,0.16633696,-0.901639161,1.113851804,0.191363013,0.680553724,0.335643363,-0.761900941,0.761900941,0,1,0,1,,0,-0.761900941,,0,-0.614566569,,0.335643363,0
180,1,181,50,20_crunch.png,1.1,63_kitkat.png,1.85,0,2482,84,3314,2,1332,994,2326,2,1,0.75,1.210307296,0.75,0.682202515,0.88133583,-0.433824034,0.83,5,5.83,2.95,0.83,5,1.1,1.85,1,-0.824584149,-0.071287268,-0.901639161,0.77885878,-2.13978099,0.854304728,-0.410230777,1.880235737,1.880235737,1,0,0,1,,0,1.880235737,,0.88133583,0,,0,-0.410230777
181,1,182,40,27_mars.png,0.95,2_maynards_winegums.png,1.1,0,2747,76,1848,2,-514,1408,894,2,1,0.15,0.242061459,0.15,-0.988497522,0.28297487,-0.267003945,4.58,4.08,8.66,2.05,4.58,4.08,0.95,1.1,1,0.505845236,-1.497032638,-1.245120746,-0.896106338,0.550000552,0.214901034,-0.410230777,-0.730783699,0.730783699,1,0,1,1,,-0.730783699,0,,0.28297487,0,,0,-0.410230777
182,1,183,21,10_hula_hoops_bbq_beef.png,2,42_dairy_milk_fruit_and_nut.png,1.55,1,2918,54,2532,2,486,950,1436,3,2,-0.45,-0.726184377,0.45,-0.153147503,-1.362517768,-0.159357775,5,4.33,9.33,3.55,4.33,5,1.55,2,1,0.820823218,0.879209645,0.128805594,1.113851804,0.370681783,0.854304728,0.335643363,0.683636364,0.683636364,0,0,1,1,,0.683636364,0,,0,-1.362517768,,0,0.335643363
183,1,184,43,35_mms_plain.png,2,103_nakd_berry.png,1.85,1,3706,40,1985,2,1036,1582,2618,3,2,-0.15,-0.242061459,0.15,-0.988497522,-2.409649447,0.336695923,4.83,2.58,7.41,3.85,2.58,4.83,1.85,2,1,-0.081800252,1.354458101,0.815768765,1.113851804,-0.884549603,0.736154046,0.335643363,1.461567399,1.461567399,0,1,0,1,,0,1.461567399,,0,-2.409649447,,0.335643363,0
184,1,185,29,35_mms_plain.png,2,29_mms_peanut.png,1.1,1,3625,52,1531,2,481,1236,1717,3,2,-0.9,-1.452368755,0.9,1.099877524,-1.512108008,0.285705631,4.83,5,9.83,3.1,5,4.83,1.1,2,1,1.055881413,0.16633696,-0.901639161,1.113851804,0.851256085,0.736154046,0.335643363,0.676564264,0.676564264,0,1,0,1,,0,0.676564264,,0,-1.512108008,,0.335643363,0
185,1,186,38,38_milkybar.png,0.8,56_marshmallows.png,0.95,0,3938,50,1407,2,1491,1557,3048,5,1,0.15,0.242061459,0.15,-0.988497522,-1.661698248,0.482742189,4.33,3.83,8.16,1.75,4.33,3.83,0.8,0.95,1,0.270787041,-1.972281095,-1.588602331,-1.231099362,0.370681783,0.041150029,1.827391645,2.105128527,2.105128527,0,1,0,1,,0,2.105128527,,0,-1.661698248,,1.827391645,0
186,1,187,16,104_graze_sriracha.png,0.65,116_boots_caramels.png,0.95,0,2329,52,3320,2,1105,869,1974,1,1,0.3,0.484122918,0.3,-0.570822512,-1.512108008,-0.530139029,0.33,1.08,1.41,1.6,0.33,1.08,0.65,0.95,1,-2.902498596,-2.209905323,-1.932083917,-1.231099362,-2.498418529,-1.870111015,-1.156104918,1.559162383,1.559162383,0,1,0,1,,0,1.559162383,,0,-1.512108008,,-1.156104918,0
187,1,188,51,5_caramello.png,1.25,59_crunchie.png,1.7,0,2028,78,1503,2,-8,796,788,2,1,0.45,0.726184377,0.45,-0.153147503,0.43256511,-0.719621469,2.83,5,7.83,2.95,2.83,5,1.25,1.7,1,0.115648632,-0.071287268,-0.558157576,0.443865756,-0.705230834,0.854304728,-0.410230777,-0.015087147,0.015087147,1,1,0,1,,0,-0.015087147,,0.43256511,0,,-0.410230777,0
188,1,189,32,24_twix.png,1.85,55_bassetts_licorice_allsorts.png,0.35,1,1665,100,2512,2,996,446,1442,1,2,-1.5,-2.420614591,1.5,2.770577561,2.078057749,-0.948133515,5,4.33,9.33,2.2,4.33,5,0.35,1.85,1,0.820823218,-1.25940841,-2.619047087,0.77885878,0.370681783,0.854304728,-1.156104918,1.404990596,1.404990596,1,1,0,1,,0,1.404990596,,2.078057749,0,,-1.156104918,0
189,1,190,31,109_kp_roast.png,2.3,27_mars.png,0.95,1,1580,74,4224,2,209,496,705,1,2,-1.35,-2.178553132,1.35,2.352902551,0.133384631,-1.001641845,5,4.58,9.58,3.25,4.58,5,0.95,2.3,1,0.938352316,0.403961188,-1.245120746,1.783837851,0.550000552,0.854304728,-1.156104918,0.291842006,0.291842006,1,1,0,1,,0,0.291842006,,0.133384631,0,,-1.156104918,0
190,1,191,44,26_yorkie.png,1.7,102_propercorn_worcester.png,2.3,0,4189,58,3312,2,197,1767,1964,3,1,0.6,0.968245837,0.6,0.264527506,-1.063337288,0.640749141,3.58,4.83,8.41,4,3.58,4.83,1.7,2.3,1,0.388316139,1.592082329,0.47228718,1.783837851,-0.167274525,0.736154046,0.335643363,0.274868966,0.274868966,0,1,0,1,,0,0.274868966,,0,-1.063337288,,0.335643363,0
191,1,192,42,19_pistachios.png,1.7,63_kitkat.png,1.85,0,2626,70,3155,2,330,1046,1376,4,2,0.15,0.242061459,0.15,-0.988497522,-0.165795849,-0.343174627,4.33,5,9.33,3.55,4.33,5,1.7,1.85,1,0.820823218,0.879209645,0.47228718,0.77885878,0.370681783,0.854304728,1.081517504,0.462986834,0.462986834,0,1,0,1,,0,0.462986834,,0,-0.165795849,,1.081517504,0
192,1,193,15,108_chilli_nuts.png,1.7,57_food_doctor_mild_korma_crisps.png,1.25,1,3783,58,2508,2,328,1526,1854,4,2,-0.45,-0.726184377,0.45,-0.153147503,-1.063337288,0.385168175,3.33,0.08,3.41,2.95,0.08,3.33,1.25,1.7,1,-1.962265815,-0.071287268,-0.558157576,0.443865756,-2.677737298,-0.306351979,1.081517504,0.460157994,0.460157994,0,0,1,1,,0.460157994,0,,0,-1.063337288,,0,1.081517504
193,1,194,55,23_kp_grazing_mix.png,1.55,45_gb_ginger.png,2,0,2920,70,1445,2,192,1372,1564,3,2,0.45,0.726184377,0.45,-0.153147503,-0.165795849,-0.158098755,2.58,4.83,7.41,3.55,2.58,4.83,1.55,2,1,-0.081800252,0.879209645,0.128805594,1.113851804,-0.884549603,0.736154046,0.335643363,0.267796865,0.267796865,0,1,0,1,,0,0.267796865,,0,-0.165795849,,0.335643363,0
194,1,195,19,117_yogurt_raisins.png,1.25,18_galaxy_bar.png,1.1,0,4843,70,1909,2,337,2248,2585,3,2,-0.15,-0.242061459,0.15,-0.988497522,-0.165795849,1.05244853,3.08,4.75,7.83,2.35,3.08,4.75,1.25,1.1,0,0.115648632,-1.021784182,-0.558157576,-0.896106338,-0.525912064,0.680553724,0.335643363,0.472887774,0.472887774,0,1,1,1,,0.472887774,0,,0,-0.165795849,,0.335643363,0
195,1,196,49,60_caramel_rice_crisps.png,1.4,52_discos_salt_vinegar.png,1.7,0,5275,66,2347,2,927,2420,3347,7,1,0.3,0.484122918,0.3,-0.570822512,-0.464976329,1.32439675,3.08,4.58,7.66,3.1,3.08,4.58,1.4,1.7,1,0.035728846,0.16633696,-0.214675991,0.443865756,-0.525912064,0.562403042,3.319139926,1.307395612,1.307395612,0,1,0,1,,0,1.307395612,,0,-0.464976329,,3.319139926,0
196,1,197,17,20_crunch.png,1.1,60_caramel_rice_crisps.png,1.4,0,5630,62,2406,2,-92,2514,2422,5,2,0.3,0.484122918,0.3,-0.570822512,-0.764156809,1.547872717,0.83,3.08,3.91,2.5,0.83,3.08,1.1,1.4,1,-1.727207619,-0.784159953,-0.901639161,-0.226120291,-2.13978099,-0.480102983,1.827391645,-0.133898433,0.133898433,0,1,0,1,,0,-0.133898433,,0,-0.764156809,,1.827391645,0
197,1,198,27,10_hula_hoops_bbq_beef.png,2,39_milkyway.png,1.25,1,1871,80,2333,2,-268,860,592,2,1,-0.75,-1.210307296,0.75,0.682202515,0.58215535,-0.818454503,5,4.08,9.08,3.25,4.08,5,1.25,2,1,0.70329412,0.403961188,-0.558157576,1.113851804,0.191363013,0.854304728,-0.410230777,-0.382836364,0.382836364,1,1,0,1,,0,-0.382836364,,0.58215535,0,,-0.410230777,0
198,1,199,13,103_nakd_berry.png,1.85,117_yogurt_raisins.png,1.25,1,4173,74,2035,2,-68,1918,1850,5,2,-0.6,-0.968245837,0.6,0.264527506,0.133384631,0.630676985,2.58,3.08,5.66,3.1,3.08,2.58,1.25,1.85,1,-0.904503936,0.16633696,-0.558157576,0.77885878,-0.525912064,-0.827604991,1.827391645,-0.099952351,0.099952351,1,0,0,1,,0,-0.099952351,,0.133384631,0,,0,1.827391645
199,1,200,23,33_walkers_smoky_bacon.png,1.55,14_maltesers.png,1.85,0,2828,74,1462,2,-19,1166,1147,3,2,0.3,0.484122918,0.3,-0.570822512,0.133384631,-0.216013654,3.83,5,8.83,3.4,3.83,5,1.55,1.85,1,0.585765023,0.641585416,0.128805594,0.77885878,0.012044244,0.854304728,0.335643363,-0.030645768,0.030645768,1,1,0,1,,0,-0.030645768,,0.133384631,0,,0.335643363,0
200,1,201,28,15_jacobs_mini_cheddars.png,1.85,13_fruit_pastilles.png,1.1,0,2166,80,1946,1,1071,938,2009,3,1,-0.75,-1.210307296,0.75,0.682202515,0.58215535,-0.632749121,4.83,4.33,9.16,2.95,4.83,4.33,1.85,1.1,1,0.740903432,-0.071287268,0.815768765,-0.896106338,0.729319322,0.388652038,0.335643363,1.511072101,1.511072101,1,0,1,1,,1.511072101,0,,0.58215535,0,,0,0.335643363
201,1,202,21,10_hula_hoops_bbq_beef.png,2,42_dairy_milk_fruit_and_nut.png,1.55,0,2263,76,2455,1,131,845,976,3,1,-0.45,-0.726184377,0.45,-0.153147503,0.28297487,-0.571686673,5,4.33,9.33,3.55,5,4.33,2,1.55,1,0.820823218,0.879209645,1.15925035,0.108872733,0.851256085,0.388652038,0.335643363,0.181517241,0.181517241,1,0,0,1,,0,0.181517241,,0.28297487,0,,0,0.335643363
202,1,203,52,38_milkybar.png,0.8,42_dairy_milk_fruit_and_nut.png,1.55,1,1491,94,1404,1,1251,410,1661,1,2,0.75,1.210307296,0.75,0.682202515,1.629287029,-1.057668215,4.33,4.33,8.66,2.35,4.33,4.33,1.55,0.8,1,0.505845236,-1.021784182,0.128805594,-1.566092386,0.370681783,0.388652038,-1.156104918,1.765667712,1.765667712,1,0,1,1,,1.765667712,0,,1.629287029,0,,0,-1.156104918
203,1,204,20,53_eat_natural_almond_apricot.png,1.1,25_wonderful_almonds.png,1.25,0,1697,88,919,1,1035,753,1788,2,1,0.15,0.242061459,0.15,-0.988497522,1.18051631,-0.927989202,4.33,4.58,8.91,2.35,4.33,4.58,1.1,1.25,0,0.623374334,-1.021784182,-0.901639161,-0.561113315,0.370681783,0.562403042,-0.410230777,1.460152979,1.460152979,1,0,0,1,,0,1.460152979,,1.18051631,0,,0,-0.410230777
204,1,205,47,34_hobnob_flapjack.png,1.55,51_smarties.png,1.7,1,2250,88,1017,1,56,862,918,3,2,0.15,0.242061459,0.15,-0.988497522,1.18051631,-0.5798703,1.08,5,6.08,3.25,5,1.08,1.7,1.55,1,-0.707055052,0.403961188,0.47228718,0.108872733,0.851256085,-1.870111015,0.335643363,0.075435737,0.075435737,1,1,1,1,,0.075435737,0,,1.18051631,0,,0.335643363,0
205,1,206,15,108_chilli_nuts.png,1.7,57_food_doctor_mild_korma_crisps.png,1.25,0,2017,70,1626,1,-568,1222,654,2,1,-0.45,-0.726184377,0.45,-0.153147503,-0.165795849,-0.726546076,3.33,0.08,3.41,2.95,3.33,0.08,1.7,1.25,1,-1.962265815,-0.071287268,0.47228718,-0.561113315,-0.346593295,-2.565115031,-0.410230777,-0.807162383,0.807162383,0,0,1,1,,-0.807162383,0,,0,-0.165795849,,0,-0.410230777
206,1,207,42,19_pistachios.png,1.7,63_kitkat.png,1.85,1,2098,82,2107,1,62,810,872,3,2,0.15,0.242061459,0.15,-0.988497522,0.73174559,-0.675555785,4.33,5,9.33,3.55,5,4.33,1.85,1.7,1,0.820823218,0.879209645,0.815768765,0.443865756,0.851256085,0.388652038,0.335643363,0.083922257,0.083922257,1,0,1,1,,0.083922257,0,,0.73174559,0,,0,0.335643363
207,1,208,26,113_walkers_cheese.png,2,25_wonderful_almonds.png,1.25,0,1744,90,2094,1,-241,783,542,2,1,-0.75,-1.210307296,0.75,0.682202515,1.330106549,-0.898402243,4.33,4.58,8.91,3.25,4.33,4.58,2,1.25,1,0.623374334,0.403961188,1.15925035,-0.561113315,0.370681783,0.562403042,-0.410230777,-0.344647022,0.344647022,1,0,1,1,,-0.344647022,0,,1.330106549,0,,0,-0.410230777
208,1,209,24,24_twix.png,1.85,112_lindt_extra_creamy.png,1.85,0,2002,88,1892,1,866,873,1739,2,1,0,1.05E-17,0,-1.406172531,1.18051631,-0.735988723,5,4.08,9.08,3.7,5,4.08,1.85,1.85,1,0.70329412,1.116833873,0.815768765,0.77885878,0.851256085,0.214901034,-0.410230777,1.221115988,1.221115988,1,1,1,1,,1.221115988,0,,1.18051631,0,,-0.410230777,0
209,1,210,29,35_mms_plain.png,2,29_mms_peanut.png,1.1,0,2099,72,1688,1,-121,1124,1003,2,1,-0.9,-1.452368755,0.9,1.099877524,-0.016205609,-0.674926275,4.83,5,9.83,3.1,4.83,5,2,1.1,1,1.055881413,0.16633696,1.15925035,-0.896106338,0.729319322,0.854304728,-0.410230777,-0.174916614,0.174916614,0,0,1,1,,-0.174916614,0,,0,-0.016205609,,0,-0.410230777
210,1,211,49,60_caramel_rice_crisps.png,1.4,52_discos_salt_vinegar.png,1.7,0,4340,56,1578,1,-270,2030,1760,3,1,0.3,0.484122918,0.3,-0.570822512,-1.212927528,0.735805116,3.08,4.58,7.66,3.1,3.08,4.58,1.4,1.7,0,0.035728846,0.16633696,-0.214675991,0.443865756,-0.525912064,0.562403042,0.335643363,-0.385665204,0.385665204,0,0,0,1,,0,-0.385665204,,0,-1.212927528,,0,0.335643363
211,1,212,23,33_walkers_smoky_bacon.png,1.55,14_maltesers.png,1.85,1,2085,84,1389,1,888,514,1402,1,2,0.3,0.484122918,0.3,-0.570822512,0.88133583,-0.683739412,3.83,5,8.83,3.4,5,3.83,1.85,1.55,1,0.585765023,0.641585416,0.815768765,0.108872733,0.851256085,0.041150029,-1.156104918,1.252233229,1.252233229,1,0,1,1,,1.252233229,0,,0.88133583,0,,0,-1.156104918
212,1,213,55,23_kp_grazing_mix.png,1.55,45_gb_ginger.png,2,1,2755,88,1999,1,228,982,1210,3,2,0.45,0.726184377,0.45,-0.153147503,1.18051631,-0.261967867,2.58,4.83,7.41,3.55,4.83,2.58,2,1.55,1,-0.081800252,0.879209645,1.15925035,0.108872733,0.729319322,-0.827604991,0.335643363,0.318715988,0.318715988,1,1,0,1,,0,0.318715988,,1.18051631,0,,0.335643363,0
213,1,214,22,31_beef_jerky.png,2,15_jacobs_mini_cheddars.png,1.85,0,2265,68,978,1,6,926,932,2,1,-0.15,-0.242061459,0.15,-0.988497522,-0.315386089,-0.570427654,4.83,4.83,9.66,3.85,4.83,4.83,2,1.85,1,0.975961627,1.354458101,1.15925035,0.77885878,0.729319322,0.736154046,-0.410230777,0.004714734,0.004714734,0,1,0,1,,0,0.004714734,,0,-0.315386089,,-0.410230777,0
214,1,215,51,5_caramello.png,1.25,59_crunchie.png,1.7,1,1866,88,1626,1,383,540,923,1,2,0.45,0.726184377,0.45,-0.153147503,1.18051631,-0.821602052,2.83,5,7.83,2.95,5,2.83,1.7,1.25,1,0.115648632,-0.071287268,0.47228718,-0.561113315,0.851256085,-0.653853987,-1.156104918,0.537951097,0.537951097,1,0,0,1,,0,0.537951097,,1.18051631,0,,0,-1.156104918
215,1,216,32,24_twix.png,1.85,55_bassetts_licorice_allsorts.png,0.35,0,2166,100,1842,1,286,1301,1587,3,1,-1.5,-2.420614591,1.5,2.770577561,2.078057749,-0.632749121,5,4.33,9.33,2.2,5,4.33,1.85,0.35,1,0.820823218,-1.25940841,0.815768765,-2.571071457,0.851256085,0.388652038,0.335643363,0.400752351,0.400752351,1,1,0,1,,0,0.400752351,,2.078057749,0,,0.335643363,0
216,1,217,19,117_yogurt_raisins.png,1.25,18_galaxy_bar.png,1.1,1,4828,76,1901,1,-302,2030,1728,5,2,-0.15,-0.242061459,0.15,-0.988497522,0.28297487,1.043005883,3.08,4.75,7.83,2.35,4.75,3.08,1.1,1.25,0,0.115648632,-1.021784182,-0.901639161,-0.561113315,0.671937316,-0.480102983,1.827391645,-0.430926646,0.430926646,1,0,1,1,,-0.430926646,0,,0.28297487,0,,0,1.827391645
217,1,218,14,31_beef_jerky.png,2,116_boots_caramels.png,0.95,0,2376,66,1493,1,-112,978,866,1,1,-1.05,-1.694430214,1.05,1.517552533,-0.464976329,-0.50055207,4.83,1.08,5.91,2.95,4.83,1.08,2,0.95,1,-0.786974838,-0.071287268,1.15925035,-1.231099362,0.729319322,-1.870111015,-1.156104918,-0.162186834,0.162186834,0,1,0,1,,0,-0.162186834,,0,-0.464976329,,-1.156104918,0
218,1,219,43,35_mms_plain.png,2,103_nakd_berry.png,1.85,0,2106,82,2712,1,-436,1064,628,2,1,-0.15,-0.242061459,0.15,-0.988497522,0.73174559,-0.670519707,4.83,2.58,7.41,3.85,4.83,2.58,2,1.85,1,-0.081800252,1.354458101,1.15925035,0.77885878,0.729319322,-0.827604991,-0.410230777,-0.620458934,0.620458934,1,1,1,1,,-0.620458934,0,,0.73174559,0,,-0.410230777,0
219,1,220,13,103_nakd_berry.png,1.85,117_yogurt_raisins.png,1.25,0,2328,70,2509,1,-390,1231,841,2,1,-0.6,-0.968245837,0.6,0.264527506,-0.165795849,-0.530768538,2.58,3.08,5.66,3.1,2.58,3.08,1.85,1.25,1,-0.904503936,0.16633696,0.815768765,-0.561113315,-0.884549603,-0.480102983,-0.410230777,-0.555395611,0.555395611,0,1,0,1,,0,-0.555395611,,0,-0.165795849,,-0.410230777,0
220,1,221,45,43_mccoys_steak_crisps.png,2,51_smarties.png,1.7,0,4574,62,2369,1,-347,2107,1760,6,1,-0.3,-0.484122918,0.3,-0.570822512,-0.764156809,0.883110402,5,5,10,3.7,5,5,2,1.7,1,1.1358012,1.116833873,1.15925035,0.443865756,0.851256085,0.854304728,2.573265785,-0.494575549,0.494575549,0,0,1,1,,-0.494575549,0,,0,-0.764156809,,0,2.573265785
221,1,222,17,20_crunch.png,1.1,60_caramel_rice_crisps.png,1.4,1,1708,78,1915,1,235,640,875,2,2,0.3,0.484122918,0.3,-0.570822512,0.43256511,-0.921064595,0.83,3.08,3.91,2.5,3.08,0.83,1.4,1.1,1,-1.727207619,-0.784159953,-0.214675991,-0.896106338,-0.525912064,-2.043862019,-0.410230777,0.328616928,0.328616928,1,0,0,1,,0,0.328616928,,0.43256511,0,,0,-0.410230777
222,1,223,50,20_crunch.png,1.1,63_kitkat.png,1.85,1,1739,92,1985,1,315,526,841,1,2,0.75,1.210307296,0.75,0.682202515,1.479696789,-0.901549792,0.83,5,5.83,2.95,5,0.83,1.85,1.1,1,-0.824584149,-0.071287268,0.815768765,-0.896106338,0.851256085,-2.043862019,-1.156104918,0.441770533,0.441770533,1,0,0,1,,0,0.441770533,,1.479696789,0,,0,-1.156104918
223,1,224,18,55_bassetts_licorice_allsorts.png,0.35,29_mms_peanut.png,1.1,1,1466,82,2474,1,865,604,1469,1,2,0.75,1.210307296,0.75,0.682202515,0.73174559,-1.073405959,4.33,5,9.33,1.45,5,4.33,1.1,0.35,1,0.820823218,-2.447529551,-0.901639161,-2.571071457,0.851256085,0.388652038,-1.156104918,1.219701568,1.219701568,1,0,0,1,,0,1.219701568,,0.73174559,0,,0,-1.156104918
224,1,225,44,26_yorkie.png,1.7,102_propercorn_worcester.png,2.3,0,4432,70,2451,1,-952,2204,1252,4,1,0.6,0.968245837,0.6,0.264527506,-0.165795849,0.793720015,3.58,4.83,8.41,4,3.58,4.83,1.7,2.3,0,0.388316139,1.592082329,0.47228718,1.783837851,-0.167274525,0.736154046,1.081517504,-1.350299687,1.350299687,0,0,0,1,,0,-1.350299687,,0,-0.165795849,,0,1.081517504
225,1,226,54,2_maynards_winegums.png,1.1,11_lindt_orange.png,2,1,1759,92,1596,1,599,610,1209,2,2,0.9,1.452368755,0.9,1.099877524,1.479696789,-0.888959597,4.08,4.75,8.83,3.1,4.75,4.08,2,1.1,1,0.585765023,0.16633696,1.15925035,-0.896106338,0.671937316,0.214901034,-0.410230777,0.843465831,0.843465831,1,1,0,1,,0,0.843465831,,1.479696789,0,,-0.410230777,0
226,1,227,48,53_eat_natural_almond_apricot.png,1.1,44_walkers_french_fries.png,2,1,1533,82,2003,1,1533,448,1981,1,2,0.9,1.452368755,0.9,1.099877524,0.73174559,-1.031228804,4.33,4.33,8.66,3.1,4.33,4.33,2,1.1,1,0.505845236,0.16633696,1.15925035,-0.896106338,0.370681783,0.388652038,-1.156104918,2.16453417,2.16453417,1,1,1,1,,2.16453417,0,,0.73174559,0,,-1.156104918,0
227,1,228,39,39_milkyway.png,1.25,50_nakd_rhubarb_and_custard.png,0.65,0,1556,100,1472,1,51,581,632,2,1,-0.6,-0.968245837,0.6,0.264527506,2.078057749,-1.01675008,4.08,0,4.08,1.9,4.08,0,1.25,0.65,1,-1.647287833,-1.734656866,-0.558157576,-1.901085409,0.191363013,-2.620715353,-0.410230777,0.068363636,0.068363636,1,1,1,1,,0.068363636,0,,2.078057749,0,,-0.410230777,0
228,1,229,53,54_milkyway_magic_stars.png,1.55,107_graze_scream.png,1.55,0,1545,84,1487,1,-113,613,500,2,1,0,1.05E-17,0,-1.406172531,0.88133583,-1.023674687,5,2.83,7.83,3.1,5,2.83,1.55,1.55,1,0.115648632,0.16633696,0.128805594,0.108872733,0.851256085,-0.653853987,-0.410230777,-0.163601254,0.163601254,1,0,1,1,,-0.163601254,0,,0.88133583,0,,0,-0.410230777
229,1,230,41,59_crunchie.png,1.7,11_lindt_orange.png,2,1,1291,80,1698,1,799,456,1255,2,2,0.3,0.484122918,0.3,-0.570822512,0.58215535,-1.183570168,5,4.75,9.75,3.7,4.75,5,2,1.7,1,1.018272102,1.116833873,1.15925035,0.443865756,0.671937316,0.854304728,-0.410230777,1.126349844,1.126349844,1,1,1,1,,1.126349844,0,,0.58215535,0,,-0.410230777,0
230,1,231,56,36_nature_valley_protein_bars.png,1.4,64_nestle_aero_mint.png,1.55,1,1544,94,1670,1,756,466,1222,1,2,0.15,0.242061459,0.15,-0.988497522,1.629287029,-1.024304197,3.83,5,8.83,2.95,5,3.83,1.55,1.4,1,0.585765023,-0.071287268,0.128805594,-0.226120291,0.851256085,0.041150029,-1.156104918,1.065529781,1.065529781,1,0,1,1,,1.065529781,0,,1.629287029,0,,0,-1.156104918
231,1,232,16,104_graze_sriracha.png,0.65,116_boots_caramels.png,0.95,1,4190,64,1626,1,214,1716,1930,4,1,0.3,0.484122918,0.3,-0.570822512,-0.614566569,0.641378651,0.33,1.08,1.41,1.6,1.08,0.33,0.95,0.65,1,-2.902498596,-2.209905323,-1.245120746,-1.901085409,-1.96046222,-2.391364027,1.081517504,0.298914107,0.298914107,0,1,0,1,,0,0.298914107,,0,-0.614566569,,1.081517504,0
232,1,233,46,104_graze_sriracha.png,0.65,112_lindt_extra_creamy.png,1.85,1,1712,82,2183,1,841,682,1523,2,2,1.2,1.936491673,1.2,1.935227542,0.73174559,-0.918546556,0.33,4.08,4.41,2.5,4.08,0.33,1.85,0.65,1,-1.492149424,-0.784159953,0.815768765,-1.901085409,0.191363013,-2.391364027,-0.410230777,1.185755486,1.185755486,1,1,0,1,,0,1.185755486,,0.73174559,0,,-0.410230777,0
233,1,234,30,33_walkers_smoky_bacon.png,1.55,56_marshmallows.png,0.95,1,2958,58,1699,1,964,1226,2190,2,2,-0.6,-0.968245837,0.6,0.264527506,-1.063337288,-0.134177384,3.83,3.83,7.66,2.5,3.83,3.83,0.95,1.55,0,0.035728846,-0.784159953,-1.245120746,0.108872733,0.012044244,0.041150029,-0.410230777,1.359729154,1.359729154,0,1,0,1,,0,1.359729154,,0,-1.063337288,,-0.410230777,0
234,1,235,31,109_kp_roast.png,2.3,27_mars.png,0.95,0,1618,82,3508,1,-374,802,428,2,1,-1.35,-2.178553132,1.35,2.352902551,0.73174559,-0.977720474,5,4.58,9.58,3.25,5,4.58,2.3,0.95,1,0.938352316,0.403961188,1.84621352,-1.231099362,0.851256085,0.562403042,-0.410230777,-0.53276489,0.53276489,1,1,1,1,,-0.53276489,0,,0.73174559,0,,-0.410230777,0
235,1,236,25,45_gb_ginger.png,2,52_discos_salt_vinegar.png,1.7,0,1474,86,2337,1,269,932,1201,1,1,-0.3,-0.484122918,0.3,-0.570822512,1.03092607,-1.068369881,4.83,4.58,9.41,3.7,4.83,4.58,2,1.7,1,0.858432529,1.116833873,1.15925035,0.443865756,0.729319322,0.562403042,-1.156104918,0.37670721,0.37670721,1,1,0,1,,0,0.37670721,,1.03092607,0,,-1.156104918,0
236,1,237,27,10_hula_hoops_bbq_beef.png,2,39_milkyway.png,1.25,0,1715,88,1984,1,-215,776,561,2,1,-0.75,-1.210307296,0.75,0.682202515,1.18051631,-0.916658027,5,4.08,9.08,3.25,5,4.08,2,1.25,1,0.70329412,0.403961188,1.15925035,-0.561113315,0.851256085,0.214901034,-0.410230777,-0.3078721,0.3078721,1,1,0,1,,0,-0.3078721,,1.18051631,0,,-0.410230777,0
237,1,238,37,115_shapers_blueberry.png,1.1,13_fruit_pastilles.png,1.1,1,1819,74,2917,1,1125,594,1719,2,2,0,1.05E-17,0,-1.406172531,0.133384631,-0.851189011,1.33,4.33,5.66,2.2,4.33,1.33,1.1,1.1,1,-0.904503936,-1.25940841,-0.901639161,-0.896106338,0.370681783,-1.696360011,-0.410230777,1.587450784,1.587450784,1,1,0,1,,0,1.587450784,,0.133384631,0,,-0.410230777,0
238,1,239,40,27_mars.png,0.95,2_maynards_winegums.png,1.1,1,1454,88,2149,1,385,720,1105,1,2,0.15,0.242061459,0.15,-0.988497522,1.18051631,-1.080960076,4.58,4.08,8.66,2.05,4.08,4.58,1.1,0.95,1,0.505845236,-1.497032638,-0.901639161,-1.231099362,0.191363013,0.562403042,-1.156104918,0.540779937,0.540779937,1,1,0,1,,0,0.540779937,,1.18051631,0,,-1.156104918,0
239,1,240,38,38_milkybar.png,0.8,56_marshmallows.png,0.95,0,3480,70,1846,1,-454,1981,1527,2,1,0.15,0.242061459,0.15,-0.988497522,-0.165795849,0.194426715,4.33,3.83,8.16,1.75,4.33,3.83,0.8,0.95,0,0.270787041,-1.972281095,-1.588602331,-1.231099362,0.370681783,0.041150029,-0.410230777,-0.645918495,0.645918495,0,0,1,1,,-0.645918495,0,,0,-0.165795849,,0,-0.410230777
240,2,1,32,62_cadbury_wispa.png,0.2,58_walnut_whip.png,0.5,0,4960,100,1356,2,902,1591,2493,1,1,0.3,0.936104476,0.3,0.112178088,0.781557576,2.213399327,0.58,0.58,1.16,0.7,0.58,0.58,0.2,0.5,1,-1.367984234,-0.066408693,-0.749175652,0.638113452,-0.978180309,-1.074037166,-0.304124352,0.609015974,0.609015974,1,0,1,0,,-0.060059812,0.060059812,,0.399530599,-0.399530599,,0.031078089,-0.031078089
241,2,2,22,45_gb_ginger.png,0.5,31_beef_jerky.png,0.65,0,6438,100,2583,2,3006,1364,4370,2,2,0.15,0.486174421,0.15,-0.711987456,0.781557576,3.392501488,5,2.33,7.33,1.15,5,2.33,0.5,0.65,1,0.544074074,1.312848785,0.555313996,1.27357913,1.07353234,-0.25932928,1.39331389,3.450925431,3.450925431,1,1,0,1,,,,,,,,,
242,2,3,34,35_mms_plain.png,0.2,11_lindt_orange.png,0.65,0,5125,64,1980,2,1284,1804,3088,1,2,0.45,1.386034532,0.45,0.936343631,-0.328346674,2.345031165,5,5,10,0.85,5,5,0.2,0.65,1,1.371496388,0.393343799,-0.749175652,1.27357913,1.07353234,0.983682182,-0.304124352,1.124990029,1.124990029,0,1,1,1,,,,,,,,,
243,2,4,35,59_crunchie.png,0.2,107_graze_scream.png,0.5,0,4268,100,3181,2,2234,1016,3250,3,1,0.3,0.936104476,0.3,0.112178088,0.781557576,1.661343377,0.83,4.83,5.66,0.7,0.83,4.83,0.2,0.5,1,0.026547757,-0.066408693,-0.749175652,0.638113452,-0.862133214,0.90453913,3.090752131,2.408171581,2.408171581,1,1,0,1,,,,,,,,,
244,2,5,11,60_caramel_rice_crisps.png,0.5,24_twix.png,0.35,1,4726,100,2877,2,96,1772,1868,1,2,-0.15,-0.41368569,0.15,-0.711987456,0.781557576,2.026721448,1.08,5,6.08,0.85,5,1.08,0.35,0.5,1,0.156704076,0.393343799,-0.096930828,0.638113452,1.07353234,-0.841263484,-0.304124352,-0.479662269,0.479662269,1,1,1,1,,,,,,,,,
245,2,6,21,103_nakd_berry.png,0.5,39_milkyway.png,0.35,1,5392,60,1931,2,2426,1246,3672,1,2,-0.15,-0.41368569,0.15,-0.711987456,-0.451669368,2.558035412,0.08,5,5.08,0.85,5,0.08,0.35,0.5,1,-0.153191922,0.393343799,-0.096930828,0.638113452,1.07353234,-1.306810848,-0.304124352,2.667509326,2.667509326,0,1,1,1,,,,,,,,,
246,2,7,17,36_nature_valley_protein_bars.png,0.2,30_starburst_original.png,0,1,3471,100,919,2,1300,1314,2614,1,1,-0.2,-0.563662375,0.2,-0.437265608,0.781557576,1.025521711,0.08,0.58,0.66,0.2,0.58,0.08,0,0.2,1,-1.522932233,-1.598917003,-1.618835417,-0.632817904,-0.978180309,-1.306810848,-0.304124352,1.146601508,1.146601508,1,1,1,1,,,,,,,,,
247,2,8,8,20_crunch.png,0.5,26_yorkie.png,0.35,1,4299,18,1674,2,1469,1564,3033,1,1,-0.15,-0.41368569,0.15,-0.711987456,-1.74655766,1.686074207,4.83,0.33,5.16,0.85,0.33,4.83,0.35,0.5,1,-0.128400242,0.393343799,-0.096930828,0.638113452,-1.094227405,0.90453913,-0.304124352,1.374872752,1.374872752,0,1,1,1,,,,,,,,,
248,2,9,3,57_food_doctor_mild_korma_crisps.png,0.5,44_walkers_french_fries.png,0.5,1,4299,4,3107,2,1079,1637,2716,1,1,0,0.036244366,0,-1.536152999,-2.178187091,1.686074207,0.33,3.83,4.16,1,3.83,0.33,0.5,0.5,1,-0.43829624,0.853096292,0.555313996,0.638113452,0.530431932,-1.190424007,-0.304124352,0.848092958,0.848092958,0,1,0,1,,,,,,,,,
249,2,10,1,20_crunch.png,0.5,113_walkers_cheese.png,0.65,0,4088,100,2391,2,2678,753,3431,1,1,0.15,0.486174421,0.15,-0.711987456,0.781557576,1.517745008,4.83,5,9.83,1.15,4.83,5,0.5,0.65,1,1.318814069,1.312848785,0.555313996,1.27357913,0.994620315,0.983682182,-0.304124352,3.007890116,3.007890116,1,1,1,1,,,,,,,,,
250,2,11,58,51_smarties.png,0,59_crunchie.png,0.2,0,3147,100,2704,2,-22,1374,1352,1,1,0.2,0.636151106,0.2,-0.437265608,0.781557576,0.767044647,0.08,0.83,0.91,0.2,0.08,0.83,0,0.2,1,-1.445458233,-1.598917003,-1.618835417,-0.632817904,-1.2102745,-0.957650325,-0.304124352,-0.639046925,0.639046925,1,1,1,1,,,,,,,,,
251,2,12,57,48_mentos_mint.png,0,116_boots_caramels.png,0.2,0,3923,100,1808,2,2297,972,3269,1,1,0.2,0.636151106,0.2,-0.437265608,0.781557576,1.38611317,5,2.08,7.08,0.2,5,2.08,0,0.2,1,0.466600074,-1.598917003,-1.618835417,-0.632817904,1.07353234,-0.375716121,-0.304124352,2.493266778,2.493266778,1,1,1,1,,,,,,,,,
252,2,13,33,52_discos_salt_vinegar.png,0.35,31_beef_jerky.png,0.65,0,3889,68,1775,2,-404,2113,1709,0,1,0.3,0.936104476,0.3,0.112178088,-0.20502398,1.358989034,0.33,2.33,2.66,1,0.33,2.33,0.35,0.65,1,-0.903140237,0.853096292,-0.096930828,1.27357913,-1.094227405,-0.25932928,-2.001562593,-1.15502098,1.15502098,0,1,0,1,,,,,,,,,
253,2,14,59,40_nestle_rolo.png,0,54_milkyway_magic_stars.png,0.2,0,4426,22,2586,2,-817,2723,1906,1,1,0.2,0.636151106,0.2,-0.437265608,-1.623234966,1.787390834,4.33,4.08,8.41,0.2,4.33,4.08,0,0.2,1,0.878761752,-1.598917003,-1.618835417,-0.632817904,0.762526124,0.555378607,-0.304124352,-1.712867276,1.712867276,0,1,0,1,,,,,,,,,
254,2,15,7,53_eat_natural_almond_apricot.png,0.65,30_starburst_original.png,0,1,3035,100,2613,2,521,1498,2019,2,2,-0.65,-1.913452541,0.65,2.035231023,0.781557576,0.677694551,0.58,0.58,1.16,0.65,0.58,0.58,0,0.65,1,-1.367984234,-0.219659524,-1.618835417,1.27357913,-0.978180309,-1.074037166,1.39331389,0.094392636,0.094392636,1,1,1,1,,,,,,,,,
255,2,16,36,56_marshmallows.png,0.2,29_mms_peanut.png,0.2,1,4915,10,2056,2,-861,2950,2089,2,2,0,0.036244366,0,-1.536152999,-1.993203049,2.177499735,2.08,5,7.08,0.4,5,2.08,0.2,0.2,1,0.466600074,-0.985913679,-0.749175652,-0.632817904,1.07353234,-0.375716121,1.39331389,-1.772298842,1.772298842,0,0,1,1,,,,,,,,,
256,2,17,12,115_shapers_blueberry.png,0.5,50_nakd_rhubarb_and_custard.png,0.35,1,5395,0,1774,2,2240,1520,3760,0,1,-0.15,-0.41368569,0.15,-0.711987456,-2.301509785,2.560428718,0.08,0.08,0.16,0.85,0.08,0.08,0.35,0.5,1,-1.677880232,0.393343799,-0.096930828,0.638113452,-1.2102745,-1.306810848,-2.001562593,2.416275885,2.416275885,0,1,1,1,,,,,,,,,
257,2,18,5,102_propercorn_worcester.png,0.35,111_propercorn_sweetnsalty.png,0.65,1,5623,14,1673,2,-537,3140,2603,2,2,0.3,0.936104476,0.3,0.112178088,-1.869880355,2.742319985,4.58,5,9.58,1,5,4.58,0.65,0.35,0,1.241340069,0.853096292,1.20755882,0.002647774,1.07353234,0.788152289,1.39331389,-1.334666397,1.334666397,0,0,0,1,,,,,,,,,
258,2,19,19,109_kp_roast.png,0.35,34_hobnob_flapjack.png,0.2,1,6208,82,1899,2,2722,1850,4572,2,2,-0.15,-0.41368569,0.15,-0.711987456,0.226605451,3.209014683,4.58,0.33,4.91,0.55,0.33,4.58,0.2,0.35,1,-0.205874241,-0.526161186,-0.749175652,0.002647774,-1.094227405,0.788152289,1.39331389,3.067321683,3.067321683,0,0,0,1,,,,,,,,,
259,2,20,56,112_lindt_extra_creamy.png,0.2,2_maynards_winegums.png,0,1,2323,100,1128,2,1596,598,2194,2,2,-0.2,-0.563662375,0.2,-0.437265608,0.781557576,0.109683226,5,0,5,0.2,0,5,0,0.2,1,-0.177983602,-1.598917003,-1.618835417,-0.632817904,-1.247409571,0.983682182,1.39331389,1.546413865,1.546413865,1,1,1,1,,,,,,,,,
260,2,21,54,47_daim.png,0.35,63_kitkat.png,0.2,0,3491,8,1690,2,-301,1970,1669,1,1,-0.15,-0.41368569,0.15,-0.711987456,-2.054864396,1.041477085,1.08,5,6.08,0.55,1.08,5,0.35,0.2,0,0.156704076,-0.526161186,-0.096930828,-0.632817904,-0.746086118,0.983682182,-0.304124352,-1.015897085,1.015897085,0,0,1,1,,,,,,,,,
261,2,22,55,38_milkybar.png,0.65,42_dairy_milk_fruit_and_nut.png,0.2,1,5468,56,1291,2,1534,2136,3670,1,1,-0.45,-1.313545801,0.45,0.936343631,-0.574992063,2.618665834,2.58,5,7.58,0.85,5,2.58,0.2,0.65,1,0.621548073,0.393343799,-0.749175652,1.27357913,1.07353234,-0.142942439,-0.304124352,1.462669385,1.462669385,0,0,0,1,,,,,,,,,
262,2,23,25,58_walnut_whip.png,0.5,108_chilli_nuts.png,0.65,0,6446,10,1264,2,2842,1762,4604,3,1,0.15,0.486174421,0.15,-0.711987456,-1.993203049,3.398883638,0.58,5,5.58,1.15,0.58,5,0.5,0.65,1,0.001756077,1.312848785,0.555313996,1.27357913,-0.978180309,0.983682182,3.090752131,3.229407774,3.229407774,0,1,1,1,,,,,,,,,
263,2,24,20,43_mccoys_steak_crisps.png,0.35,26_yorkie.png,0.35,1,4541,100,1475,2,-1079,2160,1081,1,2,0,0.036244366,0,-1.536152999,0.781557576,1.879134236,3.83,0.33,4.16,0.7,0.33,3.83,0.35,0.35,1,-0.43829624,-0.066408693,-0.096930828,0.002647774,-1.094227405,0.438991766,-0.304124352,-2.06675524,2.06675524,1,1,0,1,,,,,,,,,
264,2,25,28,13_fruit_pastilles.png,0,10_hula_hoops_bbq_beef.png,0.8,0,3991,98,2898,2,2386,630,3016,1,1,0.8,2.435871328,0.8,2.859396566,0.719896229,1.440361443,0.08,1.58,1.66,0.8,0.08,1.58,0,0.8,1,-1.213036235,0.240092968,-1.618835417,1.909044808,-1.2102745,-0.608489802,-0.304124352,2.613480629,2.613480629,1,0,1,0,,,,,,,,,
265,2,26,4,5_caramello.png,0.5,53_eat_natural_almond_apricot.png,0.65,0,4235,100,1748,2,873,608,1481,1,2,0.15,0.486174421,0.15,-0.711987456,0.781557576,1.635017009,5,0.58,5.58,1.15,5,0.58,0.5,0.65,1,0.001756077,1.312848785,0.555313996,1.27357913,1.07353234,-1.074037166,-0.304124352,0.569845169,0.569845169,1,0,0,0,,,,,,,,,
266,2,27,2,104_graze_sriracha.png,0.65,15_jacobs_mini_cheddars.png,0.65,1,5489,2,2529,2,1367,2133,3500,1,1,0,0.036244366,0,-1.536152999,-2.239848438,2.635418977,4.33,5,9.33,1.3,5,4.33,0.65,0.65,1,1.16386607,1.772601278,1.20755882,1.27357913,1.07353234,0.671765448,-0.304124352,1.237099575,1.237099575,0,0,0,0,,,,,,,,,
267,2,28,23,107_graze_scream.png,0.5,10_hula_hoops_bbq_beef.png,0.8,0,6380,2,951,2,718,2894,3612,1,1,0.3,0.936104476,0.3,0.112178088,-2.239848438,3.346230902,4.83,1.58,6.41,1.3,4.83,1.58,0.5,0.8,1,0.258969756,1.772601278,0.555313996,1.909044808,0.994620315,-0.608489802,-0.304124352,0.360483968,0.360483968,0,0,0,0,,,,,,,,,
268,2,29,9,64_nestle_aero_mint.png,0.5,32_snickers.png,0.05,1,3385,90,2109,2,2097,766,2863,2,2,-0.45,-1.313545801,0.45,0.936343631,0.47325084,0.956913601,5,5,10,0.55,5,5,0.05,0.5,1,1.371496388,-0.526161186,-1.401420476,0.638113452,1.07353234,0.983682182,1.39331389,2.223123294,2.223123294,0,1,0,0,,,,,,,,,
269,2,30,24,33_walkers_smoky_bacon.png,0.5,60_caramel_rice_crisps.png,0.5,1,4479,34,1423,2,1037,1853,2890,1,1,0,0.036244366,0,-1.536152999,-1.253266882,1.829672575,5,1.08,6.08,1,1.08,5,0.5,0.5,1,0.156704076,0.853096292,0.555313996,0.638113452,-0.746086118,0.983682182,-0.304124352,0.791362826,0.791362826,0,0,1,0,,,,,,,,,
270,2,31,26,34_hobnob_flapjack.png,0.2,108_chilli_nuts.png,0.65,0,3546,100,2688,2,2122,955,3077,1,1,0.45,1.386034532,0.45,0.936343631,0.781557576,1.085354364,0.33,5,5.33,0.85,0.33,5,0.2,0.65,1,-0.075717922,0.393343799,-0.749175652,1.27357913,-1.094227405,0.983682182,-0.304124352,2.256891229,2.256891229,1,0,1,0,,,,,,,,,
271,2,32,6,23_kp_grazing_mix.png,0.8,116_boots_caramels.png,0.2,1,3266,98,1834,2,-541,2109,1568,1,1,-0.6,-1.763475856,0.6,1.760509175,0.719896229,0.861979124,4.08,2.08,6.16,1,2.08,4.08,0.2,0.8,1,0.181495756,0.853096292,-0.749175652,1.909044808,-0.281897736,0.555378607,-0.304124352,-1.340069267,1.340069267,1,0,1,0,,,,,,,,,
272,2,33,60,63_kitkat.png,0.2,27_mars.png,0.05,1,2267,70,1788,2,505,1100,1605,2,2,-0.15,-0.41368569,0.15,-0.711987456,-0.143362632,0.065008178,5,5,10,0.25,5,5,0.05,0.2,1,1.371496388,-1.445666172,-1.401420476,-0.632817904,1.07353234,0.983682182,1.39331389,0.072781157,0.072781157,0,0,1,0,,,,,,,,,
273,2,34,30,54_milkyway_magic_stars.png,0.2,102_propercorn_worcester.png,0.35,0,3808,100,1020,2,2660,764,3424,1,1,0.15,0.486174421,0.15,-0.711987456,0.781557576,1.294369768,4.08,4.58,8.66,0.55,4.08,4.58,0.2,0.35,1,0.956235751,-0.526161186,-0.749175652,0.002647774,0.646479028,0.788152289,-0.304124352,2.983577203,2.983577203,1,0,1,0,,,,,,,,,
274,2,35,53,25_wonderful_almonds.png,0.65,43_mccoys_steak_crisps.png,0.35,0,4033,68,1610,2,2190,1051,3241,1,1,-0.3,-0.863615745,0.3,0.112178088,-0.20502398,1.473867729,0.33,3.83,4.16,1,0.33,3.83,0.65,0.35,0,-0.43829624,0.853096292,1.20755882,0.002647774,-1.094227405,0.438991766,-0.304124352,2.348740014,2.348740014,0,0,0,1,,,,,,,,,
275,2,36,29,55_bassetts_licorice_allsorts.png,0.2,103_nakd_berry.png,0.5,0,3093,78,1214,2,1418,946,2364,1,1,0.3,0.936104476,0.3,0.112178088,0.103282757,0.723965137,0,0.08,0.08,0.7,0,0.08,0.2,0.5,1,-1.702671912,-0.066408693,-0.749175652,0.638113452,-1.247409571,-1.306810848,-0.304124352,1.305986164,1.305986164,0,0,1,0,,,,,,,,,
276,2,37,18,14_maltesers.png,0.05,24_twix.png,0.35,1,3486,38,1703,2,1549,1094,2643,2,2,0.3,0.936104476,0.3,0.112178088,-1.129944188,1.037488242,5,5,10,0.4,5,5,0.35,0.05,0,1.371496388,-0.985913679,-0.096930828,-1.268283582,1.07353234,0.983682182,1.39331389,1.482930146,1.482930146,0,0,1,0,,,,,,,,,
277,2,38,31,18_galaxy_bar.png,0.05,110_bombay_mix.png,0.5,0,5401,90,1434,2,180,2740,2920,3,1,0.45,1.386034532,0.45,0.936343631,0.47325084,2.565215331,5,0.08,5.08,0.55,5,0.08,0.05,0.5,1,-0.153191922,-0.526161186,-1.401420476,0.638113452,1.07353234,-1.306810848,3.090752131,-0.366202005,0.366202005,0,0,1,0,,,,,,,,,
278,2,39,10,5_caramello.png,0.5,14_maltesers.png,0.05,0,2833,12,1090,2,-62,1691,1629,1,1,-0.45,-1.313545801,0.45,0.936343631,-1.931541702,0.516545271,5,5,10,0.55,5,5,0.5,0.05,0,1.371496388,-0.526161186,0.555313996,-1.268283582,1.07353234,0.983682182,-0.304124352,-0.693075621,0.693075621,0,0,0,0,,,,,,,,,
279,2,40,27,40_nestle_rolo.png,0,45_gb_ginger.png,0.5,0,1746,0,1590,2,983,601,1584,1,1,0.5,1.536011217,0.5,1.211065479,-2.301509785,-0.350629322,4.33,5,9.33,0.5,4.33,5,0,0.5,1,1.16386607,-0.679412017,-1.618835417,0.638113452,0.762526124,0.983682182,-0.304124352,0.718424085,0.718424085,0,0,1,0,,,,,,,,,
