,Part,TrialN,PairID,L_Item,L_Value,R_Item,R_Value,ChosenITM,ChoiceRT,Conf,ConfRT,BlockCond,tDDT,L_IA_DT,R_IA_DT,tGSF,lastFixat,DV,zDV,absDV,zAbsDV,zConf,zChoiceRT,FamLeft,FamRight,Tot_Fam,Tot_Val,FamChosen,FamUnChosen,ValChosen,ValUnChosen,Correct,ZtotFam,ZtotVal,ZValCh,ZValUnCh,ZFamCh,ZFamUnCh,ztGSF,ztDDT,absDDT,ConfSplit,GSFMedSplit,DDTMedSplit
0,1,1,14,116_boots_caramels.png,0.95,31_beef_jerky.png,2.0,1,3327,72,2427,2.0,-688,1874,1186,3,1,1.05,1.6944302139657446,1.05,1.5175525332012054,-0.016205609317923964,0.0981117203948704,1.08,4.83,5.91,2.95,4.83,1.08,2.0,0.95,0,-0.7869748379299175,-0.07128726847827055,1.159250349998111,-1.2310993619815531,0.729319321890607,-1.8701110151809766,0.335643363282691,-0.9768927902697048,0.9768927902697048,1,1,0
1,1,2,44,102_propercorn_worcester.png,2.3,26_yorkie.png,1.7,1,3424,68,2443,2.0,564,1206,1770,3,2,-0.5999999999999999,-0.9682458365518538,0.5999999999999999,0.2645275057873652,-0.3153860890334407,0.15917416794981182,4.83,3.58,8.41,4.0,3.58,4.83,1.7,2.3,1,0.388316138667923,1.5920823293478805,0.4722871796288583,1.7838378510344866,-0.16727452545268723,0.7361540456946504,0.335643363282691,0.7939611287713239,0.7939611287713239,0,1,1
2,1,3,51,59_crunchie.png,1.7,5_caramello.png,1.25,1,3691,68,3753,2.0,1071,1020,2091,1,2,-0.45,-0.7261843774138904,0.45,-0.15314750335058114,-0.3153860890334407,0.3272532761680527,5.0,2.83,7.83,2.95,2.83,5.0,1.25,1.7,1,0.11564863209722397,-0.07128726847827055,-0.5581575759250207,0.44386575636069125,-0.7052308338586638,0.8543047284543455,-1.1561049179737128,1.5110721007791523,1.5110721007791523,0,0,1
3,1,4,12,64_nestle_aero_mint.png,1.55,102_propercorn_worcester.png,2.3,0,8144,68,2981,2.0,-1493,4153,2660,4,1,0.7499999999999998,1.210307295689817,0.7499999999999998,0.6822025149253115,-0.3153860890334407,3.13046027577789,5.0,4.83,9.83,3.85,5.0,4.83,1.55,2.3,1,1.0558814133754963,1.3544581010870018,0.12880559444423215,1.7838378510344866,0.851256085129295,0.7361540456946504,1.0815175039108929,-2.1155009410908137,2.1155009410908137,0,1,0
4,1,5,4,44_walkers_french_fries.png,2.0,111_propercorn_sweetnsalty.png,2.0,0,6559,88,2748,2.0,-2039,4063,2024,4,1,0.0,1.0451085762029443e-17,0.0,-1.4061725307644208,1.1805163095441429,2.132687292534775,4.33,5.0,9.33,4.0,4.33,5.0,2.0,2.0,1,0.8208232180559283,1.5920823293478805,1.159250349998111,1.113851803697589,0.37068178295328935,0.8543047284543455,1.0815175039108929,-2.887774295560783,2.887774295560783,1,1,0
5,1,6,39,50_nakd_rhubarb_and_custard.png,0.65,39_milkyway.png,1.25,0,5595,86,4134,2.0,-2305,3511,1206,3,1,0.6,0.968245836551854,0.6,0.26452750578736545,1.030926069686385,1.5258398755970064,0.0,4.08,4.08,1.9,0.0,4.08,0.65,1.25,1,-1.6472878327995368,-1.7346568663044222,-1.932083916663526,-0.5611133146446553,-2.735119304243882,0.214901033519525,0.335643363282691,-3.264010032353845,3.264010032353845,1,1,0
6,1,7,59,54_milkyway_magic_stars.png,1.55,30_starburst_original.png,1.1,1,2470,78,2759,2.0,257,1102,1359,1,2,-0.45,-0.7261843774138904,0.45,-0.15314750335058114,0.4325651102553511,-0.4413781513018803,5.0,4.83,9.83,2.6500000000000004,4.83,5.0,1.1,1.55,1,1.0558814133754963,-0.5465357250000278,-0.9016391611096468,0.10887273269224258,0.729319321890607,0.8543047284543455,-1.1561049179737128,0.3597341693898575,0.3597341693898575,1,0,1
7,1,8,16,116_boots_caramels.png,0.95,104_graze_sriracha.png,0.65,1,6091,72,2107,2.0,1331,1858,3189,2,2,-0.29999999999999993,-0.4841229182759269,0.29999999999999993,-0.5708225124885278,-0.016205609317923964,1.8380767208263975,1.08,0.33,1.41,1.6,0.33,1.08,0.65,0.95,1,-2.9024985958060308,-2.2099053228261796,-1.932083916663526,-1.2310993619815531,-2.498418528545252,-1.8701110151809766,-0.4102307773455109,1.8788213171934236,1.8788213171934236,1,0,1
8,1,9,1,62_cadbury_wispa.png,1.55,47_daim.png,1.7,1,4669,68,2732,2.0,686,1604,2290,3,2,0.1499999999999999,0.24206145913796334,0.1499999999999999,-0.9884975216264744,-0.3153860890334407,0.9429138298663284,3.33,3.83,7.16,3.25,3.83,3.33,1.7,1.55,0,-0.19932934963099727,0.4039611880434867,0.4722871796288583,0.10887273269224258,0.012044244015971631,-0.30635197865560043,0.335643363282691,0.9665203764734049,0.9665203764734049,0,1,1
9,1,10,48,44_walkers_french_fries.png,2.0,53_eat_natural_almond_apricot.png,1.1,1,4001,66,2461,2.0,2102,542,2644,1,2,-0.8999999999999999,-1.4523687548277808,0.8999999999999999,1.0998775240632583,-0.4649763288911991,0.5224013044364223,4.33,4.33,8.66,3.1,4.33,4.33,1.1,2.0,1,0.5058452363277071,0.16633695978260807,-0.9016391611096468,1.113851803697589,0.37068178295328935,0.3886520375779001,-1.1561049179737128,2.969339185868051,2.969339185868051,0,0,1
10,1,11,37,13_fruit_pastilles.png,1.1,115_shapers_blueberry.png,1.1,0,3301,84,3204,2.0,-521,1595,1074,2,1,0.0,1.0451085762029443e-17,0.0,-1.4061725307644208,0.8813358298286262,0.08174446641107165,4.33,1.33,5.66,2.2,4.33,1.33,1.1,1.1,1,-0.9045039355897017,-1.2594084097826643,-0.9016391611096468,-0.896106338313104,0.37068178295328935,-1.6963600111226014,-0.4102307773455109,-0.7406846397266922,0.7406846397266922,1,0,0
11,1,12,6,36_nature_valley_protein_bars.png,1.4,111_propercorn_sweetnsalty.png,2.0,0,2867,84,1828,2.0,-409,1385,976,2,1,0.6000000000000001,0.968245836551854,0.6000000000000001,0.2645275057873658,0.8813358298286262,-0.19146277316464572,3.83,5.0,8.83,3.4,3.83,5.0,1.4,2.0,1,0.5857650227363602,0.6415854163043653,-0.2146759907403945,1.113851803697589,0.012044244015971631,0.8543047284543455,-0.4102307773455109,-0.5822695926559293,0.5822695926559293,1,0,0
12,1,13,35,41_jelly_babies_berry_mix.png,1.85,40_nestle_rolo.png,1.1,1,3117,72,3481,2.0,75,1182,1257,3,2,-0.75,-1.2103072956898175,0.75,0.6822025149253121,-0.016205609317923964,-0.03408533101273481,4.58,4.08,8.66,2.95,4.08,4.58,1.1,1.85,1,0.5058452363277071,-0.07128726847827055,-0.9016391611096468,0.7788587800291404,0.19136301348463047,0.5624030416362753,0.335643363282691,0.10230971789986773,0.10230971789986773,1,1,1
13,1,14,45,51_smarties.png,1.7,43_mccoys_steak_crisps.png,2.0,1,10424,28,2052,2.0,-991,5054,4063,7,2,0.30000000000000004,0.4841229182759271,0.30000000000000004,-0.5708225124885274,-3.3071908861886077,4.5657425482033185,5.0,5.0,10.0,3.7,5.0,5.0,2.0,1.7,0,1.1358011997841495,1.1168338728261231,1.159250349998111,0.44386575636069125,0.851256085129295,0.8543047284543455,3.3191399257954983,-1.405462069398644,1.405462069398644,0,1,0
14,1,15,58,5_caramello.png,1.25,34_hobnob_flapjack.png,1.55,0,2754,70,1479,2.0,-379,1313,934,2,1,0.30000000000000004,0.4841229182759271,0.30000000000000004,-0.5708225124885274,-0.16579584917568232,-0.2625973770173095,2.83,1.08,3.91,2.8,2.83,1.08,1.25,1.55,1,-1.72720761920819,-0.30891149673914986,-0.5581575759250207,0.10887273269224258,-0.7052308338586638,-1.8701110151809766,-0.4102307773455109,-0.539836990761975,0.539836990761975,1,0,0
15,1,16,41,11_lindt_orange.png,2.0,59_crunchie.png,1.7,1,5836,58,2950,2.0,76,2458,2534,5,2,-0.30000000000000004,-0.4841229182759271,0.30000000000000004,-0.5708225124885274,-1.0633372883222325,1.6775517298314486,4.75,5.0,9.75,3.7,5.0,4.75,1.7,2.0,1,1.0182721021243655,1.1168338728261231,0.4722871796288583,1.113851803697589,0.851256085129295,0.6805537243959703,1.8273916445390948,0.10372413796299954,0.10372413796299954,0,1,1
16,1,17,42,63_kitkat.png,1.85,19_pistachios.png,1.7,1,3931,56,3017,2.0,1039,1100,2139,3,2,-0.15000000000000013,-0.2420614591379637,0.15000000000000013,-0.988497521626474,-1.212927528179991,0.4783356206338872,5.0,4.33,9.33,3.55,4.33,5.0,1.7,1.85,1,0.8208232180559283,0.8792096445652439,0.4722871796288583,0.7788587800291404,0.37068178295328935,0.8543047284543455,0.335643363282691,1.4658106587589343,1.4658106587589343,0,1,1
17,1,18,52,42_dairy_milk_fruit_and_nut.png,1.55,38_milkybar.png,0.8,1,3602,72,1979,2.0,470,1290,1760,1,2,-0.75,-1.2103072956898175,0.75,0.6822025149253121,-0.016205609317923964,0.2712269067619724,4.33,4.33,8.66,2.35,4.33,4.33,0.8,1.55,1,0.5058452363277071,-1.0217841815217856,-1.5886023314788997,0.10887273269224258,0.37068178295328935,0.3886520375779001,-1.1561049179737128,0.6610056428369334,0.6610056428369334,1,0,1
18,1,19,49,52_discos_salt_vinegar.png,1.7,60_caramel_rice_crisps.png,1.4,0,5674,68,2473,2.0,946,1996,2942,4,1,-0.30000000000000004,-0.4841229182759271,0.30000000000000004,-0.5708225124885274,-0.3153860890334407,1.5755711473170102,4.58,3.08,7.66,3.1,4.58,3.08,1.7,1.4,0,0.035728845688570834,0.16633695978260807,0.4722871796288583,-0.22612029097620662,0.5500005524219482,-0.48010298271397556,1.0815175039108929,1.334269592887676,1.334269592887676,0,1,1
19,1,20,33,26_yorkie.png,1.7,58_walnut_whip.png,1.1,1,2567,78,3611,2.0,945,512,1457,1,2,-0.5999999999999999,-0.9682458365518538,0.5999999999999999,0.2645275057873652,0.4325651102553511,-0.3803157037469389,3.58,0.33,3.91,2.8,0.33,3.58,1.1,1.7,1,-1.72720761920819,-0.30891149673914986,-0.9016391611096468,0.44386575636069125,-2.498418528545252,-0.13260097459722528,-1.1561049179737128,1.3328551728245444,1.3328551728245444,1,0,1
20,1,21,7,30_starburst_original.png,1.1,62_cadbury_wispa.png,1.55,0,2097,70,3321,2.0,-452,1032,580,2,1,0.45,0.7261843774138904,0.45,-0.15314750335058114,-0.16579584917568232,-0.6761852949925314,4.83,3.33,8.16,2.6500000000000004,4.83,3.33,1.1,1.55,1,0.27078704100813894,-0.5465357250000278,-0.9016391611096468,0.10887273269224258,0.729319321890607,-0.30635197865560043,-0.4102307773455109,-0.6430896553705973,0.6430896553705973,0,0,0
21,1,22,38,56_marshmallows.png,0.95,38_milkybar.png,0.8,0,3641,56,2259,2.0,-244,1672,1428,2,1,-0.1499999999999999,-0.24206145913796334,0.1499999999999999,-0.9884975216264744,-1.212927528179991,0.2957777877376705,3.83,4.33,8.16,1.75,3.83,4.33,0.95,0.8,0,0.27078704100813894,-1.9722810945653009,-1.2451207462942735,-1.566092385650002,0.012044244015971631,0.3886520375779001,-0.4102307773455109,-0.3488902822391803,0.3488902822391803,0,0,0
22,1,23,47,51_smarties.png,1.7,34_hobnob_flapjack.png,1.55,1,4550,78,1403,2.0,-544,2188,1644,3,2,-0.1499999999999999,-0.24206145913796334,0.1499999999999999,-0.9884975216264744,0.4325651102553511,0.8680021674020187,5.0,1.08,6.08,3.25,1.08,5.0,1.55,1.7,1,-0.7070550515212645,0.4039611880434867,0.12880559444423215,0.44386575636069125,-1.9604622201392756,0.8543047284543455,0.335643363282691,-0.7732163011787239,0.7732163011787239,1,1,0
23,1,24,34,19_pistachios.png,1.7,110_bombay_mix.png,1.4,1,2973,62,2855,2.0,1171,592,1763,1,2,-0.30000000000000004,-0.4841229182759271,0.30000000000000004,-0.5708225124885274,-0.7641568086067158,-0.1247347376922355,4.33,3.58,7.91,3.1,3.58,4.33,1.4,1.7,1,0.15325794334835488,0.16633695978260807,-0.2146759907403945,0.44386575636069125,-0.16727452545268723,0.3886520375779001,-1.1561049179737128,1.6525141070923337,1.6525141070923337,0,0,1
24,1,25,15,57_food_doctor_mild_korma_crisps.png,1.25,108_chilli_nuts.png,1.7,0,2824,68,2666,2.0,99,1095,1194,2,1,0.45,0.7261843774138904,0.45,-0.15314750335058114,-0.3153860890334407,-0.2185316932147744,0.08,3.33,3.41,2.95,0.08,3.33,1.25,1.7,1,-1.962265814527758,-0.07128726847827055,-0.5581575759250207,0.44386575636069125,-2.677737298013911,-0.30635197865560043,-0.4102307773455109,0.13625579941503121,0.13625579941503121,0,0,1
25,1,26,5,113_walkers_cheese.png,2.0,32_snickers.png,2.3,0,3643,70,2331,2.0,-812,1858,1046,4,1,0.2999999999999998,0.4841229182759267,0.2999999999999998,-0.5708225124885281,-0.16579584917568232,0.2970368072748858,4.33,5.0,9.33,4.3,4.33,5.0,2.0,2.3,1,0.8208232180559283,2.0673307858696375,1.159250349998111,1.7838378510344866,0.37068178295328935,0.8543047284543455,1.0815175039108929,-1.1522808780980496,1.1522808780980496,0,1,0
26,1,27,46,112_lindt_extra_creamy.png,1.85,104_graze_sriracha.png,0.65,1,2188,72,2191,2.0,389,680,1069,1,2,-1.2000000000000002,-1.9364916731037085,1.2000000000000002,1.9352275423391525,-0.016205609317923964,-0.6188999060492358,4.08,0.33,4.41,2.5,0.33,4.08,0.65,1.85,1,-1.492149423888622,-0.784159953260907,-1.932083916663526,0.7788587800291404,-2.498418528545252,0.214901033519525,-1.1561049179737128,0.5464376177232567,0.5464376177232567,1,0,1
27,1,28,50,63_kitkat.png,1.85,20_crunch.png,1.1,1,3321,74,2863,2.0,1153,830,1983,3,2,-0.75,-1.2103072956898175,0.75,0.6822025149253121,0.1333846305398344,0.09433466178322453,5.0,0.83,5.83,2.95,0.83,5.0,1.1,1.85,1,-0.8245841491810485,-0.07128726847827055,-0.9016391611096468,0.7788587800291404,-2.1397809896079347,0.8543047284543455,0.335643363282691,1.6270545459559609,1.6270545459559609,1,1,1
28,1,29,43,103_nakd_berry.png,1.85,35_mms_plain.png,2.0,0,6784,82,2539,2.0,-498,3186,2688,4,1,0.1499999999999999,0.24206145913796334,0.1499999999999999,-0.9884975216264744,0.7317455899708678,2.274326990471495,2.58,4.83,7.41,3.85,2.58,4.83,1.85,2.0,1,-0.08180025197121323,1.3544581010870018,0.8157687648134849,1.113851803697589,-0.8845496033273226,0.7361540456946504,1.0815175039108929,-0.7081529782746606,0.7081529782746606,1,1,0
29,1,30,11,18_galaxy_bar.png,1.1,32_snickers.png,2.3,0,2314,82,2320,2.0,153,825,978,2,1,1.1999999999999995,1.936491673103708,1.1999999999999995,1.9352275423391512,0.7317455899708678,-0.5395816752046727,4.75,5.0,9.75,3.4,4.75,5.0,1.1,2.3,1,1.0182721021243655,0.6415854163043653,-0.9016391611096468,1.7838378510344866,0.6719373156606362,0.8543047284543455,-0.4102307773455109,0.2126344828241491,0.2126344828241491,1,0,1
30,1,31,8,115_shapers_blueberry.png,1.1,43_mccoys_steak_crisps.png,2.0,0,2952,80,1805,2.0,-929,1655,726,2,1,0.8999999999999999,1.4523687548277808,0.8999999999999999,1.0998775240632583,0.5821553501131095,-0.13795444283299602,1.33,5.0,6.33,3.1,1.33,5.0,1.1,2.0,1,-0.5895259538614803,0.16633695978260807,-0.9016391611096468,1.113851803697589,-1.781143450670617,0.8543047284543455,-0.4102307773455109,-1.3177680254844715,1.3177680254844715,1,0,0
31,1,32,60,57_food_doctor_mild_korma_crisps.png,1.25,110_bombay_mix.png,1.4,0,8388,46,2465,2.0,-549,4045,3496,4,1,0.1499999999999999,0.24206145913796334,0.1499999999999999,-0.9884975216264744,-1.960878727468783,3.284060659318155,0.08,3.58,3.66,2.65,0.08,3.58,1.25,1.4,1,-1.844736716867974,-0.5465357250000284,-0.5581575759250207,-0.22612029097620662,-2.677737298013911,-0.13260097459722528,1.0815175039108929,-0.7802884014943829,0.7802884014943829,0,1,0
32,1,33,13,117_yogurt_raisins.png,1.25,103_nakd_berry.png,1.85,1,5341,62,1571,2.0,-982,2754,1772,3,2,0.6000000000000001,0.968245836551854,0.6000000000000001,0.2645275057873658,-0.7641568086067158,1.3659443943706648,3.08,2.58,5.66,3.1,2.58,3.08,1.85,1.25,0,-0.9045039355897017,0.16633695978260807,0.8157687648134849,-0.5611133146446553,-0.8845496033273226,-0.48010298271397556,0.335643363282691,-1.3927322888304574,1.3927322888304574,0,1,0
33,1,34,57,40_nestle_rolo.png,1.1,48_mentos_mint.png,0.95,1,2183,74,2091,2.0,1729,638,2367,1,2,-0.15000000000000013,-0.2420614591379637,0.15000000000000013,-0.988497521626474,0.1333846305398344,-0.6220474548922741,4.08,3.58,7.66,2.05,3.58,4.08,0.95,1.1,1,0.035728845688570834,-1.4970326380435437,-1.2451207462942735,-0.896106338313104,-0.16727452545268723,0.214901033519525,-1.1561049179737128,2.4417605023198847,2.4417605023198847,1,0,1
34,1,35,10,48_mentos_mint.png,0.95,14_maltesers.png,1.85,0,3207,68,2466,2.0,438,1128,1566,2,1,0.9000000000000001,1.4523687548277813,0.9000000000000001,1.099877524063259,-0.3153860890334407,0.02257054816195313,3.58,5.0,8.58,2.8,3.58,5.0,0.95,1.85,1,0.46823592507657613,-0.30891149673914986,-1.2451207462942735,0.7788587800291404,-0.16727452545268723,0.8543047284543455,-0.4102307773455109,0.6157442008167154,0.6157442008167154,0,0,1
35,1,36,36,58_walnut_whip.png,1.1,23_kp_grazing_mix.png,1.55,1,3224,58,3722,2.0,888,920,1808,3,2,0.45,0.7261843774138904,0.45,-0.15314750335058114,-1.0633372883222325,0.033272214228283074,0.33,2.58,2.91,2.6500000000000004,2.58,0.33,1.55,1.1,0,-2.197324009847326,-0.5465357250000278,0.12880559444423215,-0.896106338313104,-0.8845496033273226,-2.391364027356102,0.335643363282691,1.252233229226031,1.252233229226031,0,1,1
36,1,37,3,108_chilli_nuts.png,1.7,41_jelly_babies_berry_mix.png,1.85,1,3476,72,3189,2.0,-656,1748,1092,3,2,0.15000000000000013,0.2420614591379637,0.15000000000000013,-0.988497521626474,-0.016205609317923964,0.1919086759174093,3.33,4.58,7.91,3.55,4.58,3.33,1.85,1.7,0,0.15325794334835488,0.8792096445652439,0.8157687648134849,0.44386575636069125,0.5500005524219482,-0.30635197865560043,0.335643363282691,-0.9316313482494868,0.9316313482494868,1,1,0
37,1,38,9,50_nakd_rhubarb_and_custard.png,0.65,47_daim.png,1.7,0,2295,72,5333,2.0,-469,1159,690,2,1,1.0499999999999998,1.6944302139657443,1.0499999999999998,1.5175525332012048,-0.016205609317923964,-0.5515423608082181,0.0,3.83,3.83,2.35,0.0,3.83,0.65,1.7,1,-1.7648169304593209,-1.0217841815217856,-1.932083916663526,0.44386575636069125,-2.735119304243882,0.04115002946114985,-0.4102307773455109,-0.667134796443838,0.667134796443838,1,0,0
38,1,39,2,107_graze_scream.png,1.55,109_kp_roast.png,2.3,0,3513,66,2712,2.0,-533,1753,1220,2,1,0.7499999999999998,1.210307295689817,0.7499999999999998,0.6822025149253115,-0.4649763288911991,0.21520053735589206,2.83,5.0,7.83,3.85,2.83,5.0,1.55,2.3,1,0.11564863209722397,1.3544581010870018,0.12880559444423215,1.7838378510344866,-0.7052308338586638,0.8543047284543455,-0.4102307773455109,-0.757657680484274,0.757657680484274,0,0,0
39,1,40,40,2_maynards_winegums.png,1.1,27_mars.png,0.95,1,4458,66,2996,2.0,172,1716,1888,3,2,-0.15000000000000013,-0.2420614591379637,0.15000000000000013,-0.988497521626474,-0.4649763288911991,0.8100872686901155,4.08,4.58,8.66,2.05,4.58,4.08,0.95,1.1,1,0.5058452363277071,-1.4970326380435437,-1.2451207462942735,-0.896106338313104,0.5500005524219482,0.214901033519525,0.335643363282691,0.23950846402365353,0.23950846402365353,0,1,1
40,1,41,57,40_nestle_rolo.png,1.1,48_mentos_mint.png,0.95,0,2009,80,3501,1.0,-213,859,646,2,1,-0.15000000000000013,-0.2420614591379637,0.15000000000000013,-0.988497521626474,0.5821553501131095,-0.7315821546300041,4.08,3.58,7.66,2.05,4.08,3.58,1.1,0.95,1,0.035728845688570834,-1.4970326380435437,-0.9016391611096468,-1.2310993619815531,0.19136301348463047,-0.13260097459722528,-0.4102307773455109,-0.3050432602820941,0.3050432602820941,1,0,0
41,1,42,41,11_lindt_orange.png,2.0,59_crunchie.png,1.7,0,3371,78,2463,1.0,-1516,2200,684,2,1,-0.30000000000000004,-0.4841229182759271,0.30000000000000004,-0.5708225124885274,0.4325651102553511,0.1258101502136067,4.75,5.0,9.75,3.7,4.75,5.0,2.0,1.7,1,1.0182721021243655,1.1168338728261231,1.159250349998111,0.44386575636069125,0.6719373156606362,0.8543047284543455,-0.4102307773455109,-2.148032602542845,2.148032602542845,1,0,0
42,1,43,11,18_galaxy_bar.png,1.1,32_snickers.png,2.3,1,1700,82,2707,1.0,133,566,699,1,2,1.1999999999999995,1.936491673103708,1.1999999999999995,1.9352275423391512,0.7317455899708678,-0.926100673129766,4.75,5.0,9.75,3.4,5.0,4.75,2.3,1.1,1,1.0182721021243655,0.6415854163043653,1.8462135203673633,-0.896106338313104,0.851256085129295,0.6805537243959703,-1.1561049179737128,0.18434608156151286,0.18434608156151286,1,0,1
43,1,44,60,57_food_doctor_mild_korma_crisps.png,1.25,110_bombay_mix.png,1.4,1,7466,42,2083,1.0,-133,3184,3051,5,2,0.1499999999999999,0.24206145913796334,0.1499999999999999,-0.9884975216264744,-2.2600592071842995,2.703652652661908,0.08,3.58,3.66,2.65,3.58,0.08,1.4,1.25,1,-1.844736716867974,-0.5465357250000284,-0.2146759907403945,-0.5611133146446553,-0.16727452545268723,-2.5651150314144773,1.8273916445390948,-0.19188965523154916,0.19188965523154916,0,1,0
44,1,45,5,113_walkers_cheese.png,2.0,32_snickers.png,2.3,1,1889,70,1681,1.0,-88,778,690,1,2,0.2999999999999998,0.4841229182759267,0.2999999999999998,-0.5708225124885281,-0.16579584917568232,-0.8071233268629213,4.33,5.0,9.33,4.3,5.0,4.33,2.3,2.0,1,0.8208232180559283,2.0673307858696375,1.8462135203673633,1.113851803697589,0.851256085129295,0.3886520375779001,-1.1561049179737128,-0.12824075239061763,0.12824075239061763,0,0,0
45,1,46,3,108_chilli_nuts.png,1.7,41_jelly_babies_berry_mix.png,1.85,1,2227,74,1989,1.0,400,656,1056,1,2,0.15000000000000013,0.2420614591379637,0.15000000000000013,-0.988497521626474,0.1333846305398344,-0.5943490250735377,3.33,4.58,7.91,3.55,4.58,3.33,1.85,1.7,1,0.15325794334835488,0.8792096445652439,0.8157687648134849,0.44386575636069125,0.5500005524219482,-0.30635197865560043,-1.1561049179737128,0.5619962384177066,0.5619962384177066,0,0,1
46,1,47,46,112_lindt_extra_creamy.png,1.85,104_graze_sriracha.png,0.65,0,4259,70,2275,1.0,276,1668,1944,2,1,-1.2000000000000002,-1.9364916731037085,1.2000000000000002,1.9352275423391525,-0.16579584917568232,0.6848148247371943,4.08,0.33,4.41,2.5,4.08,0.33,1.85,0.65,1,-1.492149423888622,-0.784159953260907,0.8157687648134849,-1.9010854093184508,0.19136301348463047,-2.391364027356102,-0.4102307773455109,0.38660815058936193,0.38660815058936193,0,0,1
47,1,48,52,42_dairy_milk_fruit_and_nut.png,1.55,38_milkybar.png,0.8,0,3505,76,2208,1.0,-1232,2046,814,2,1,-0.75,-1.2103072956898175,0.75,0.6822025149253121,0.2829748703975928,0.21016445920703095,4.33,4.33,8.66,2.35,4.33,4.33,1.55,0.8,1,0.5058452363277071,-1.0217841815217856,0.12880559444423215,-1.566092385650002,0.37068178295328935,0.3886520375779001,-0.4102307773455109,-1.7463373046134107,1.7463373046134107,0,1,0
48,1,49,59,54_milkyway_magic_stars.png,1.55,30_starburst_original.png,1.1,0,2548,90,2177,1.0,-109,1093,984,2,1,-0.45,-0.7261843774138904,0.45,-0.15314750335058114,1.330106549401901,-0.3922763893504841,5.0,4.83,9.83,2.6500000000000004,5.0,4.83,1.55,1.1,1,1.0558814133754963,-0.5465357250000278,0.12880559444423215,-0.896106338313104,0.851256085129295,0.7361540456946504,-0.4102307773455109,-0.15794357371638568,0.15794357371638568,1,1,0
49,1,50,8,115_shapers_blueberry.png,1.1,43_mccoys_steak_crisps.png,2.0,1,3226,54,2619,1.0,-475,1598,1123,3,2,0.8999999999999999,1.4523687548277808,0.8999999999999999,1.0998775240632583,-1.3625177680377492,0.03453123376549836,1.33,5.0,6.33,3.1,5.0,1.33,2.0,1.1,1,-0.5895259538614803,0.16633695978260807,1.159250349998111,-0.896106338313104,0.851256085129295,-1.6963600111226014,0.335643363282691,-0.6756213168226289,0.6756213168226289,0,1,0
50,1,51,35,41_jelly_babies_berry_mix.png,1.85,40_nestle_rolo.png,1.1,0,4604,60,1663,1.0,-401,2117,1716,4,1,-0.75,-1.2103072956898175,0.75,0.6822025149253121,-0.9137470484644742,0.9019956949068316,4.58,4.08,8.66,2.95,4.58,4.08,1.85,1.1,1,0.5058452363277071,-0.07128726847827055,0.8157687648134849,-0.896106338313104,0.5500005524219482,0.214901033519525,1.0815175039108929,-0.5709542321508748,0.5709542321508748,0,1,0
51,1,52,14,116_boots_caramels.png,0.95,31_beef_jerky.png,2.0,0,6333,56,2889,1.0,-1359,3251,1892,4,1,1.05,1.6944302139657446,1.05,1.5175525332012054,-1.212927528179991,1.9904180848294477,1.08,4.83,5.91,2.95,1.08,4.83,0.95,2.0,0,-0.7869748379299175,-0.07128726847827055,-1.2451207462942735,1.113851803697589,-1.9604622201392756,0.7361540456946504,1.0815175039108929,-1.9259686526311508,1.9259686526311508,0,1,0
52,1,53,38,56_marshmallows.png,0.95,38_milkybar.png,0.8,0,5716,58,1441,1.0,-1054,2948,1894,4,1,-0.1499999999999999,-0.24206145913796334,0.1499999999999999,-0.9884975216264744,-1.0633372883222325,1.6020105575985313,3.83,4.33,8.16,1.75,3.83,4.33,0.95,0.8,1,0.27078704100813894,-1.9722810945653009,-1.2451207462942735,-1.566092385650002,0.012044244015971631,0.3886520375779001,1.0815175039108929,-1.494570533375948,1.494570533375948,0,1,0
53,1,54,48,44_walkers_french_fries.png,2.0,53_eat_natural_almond_apricot.png,1.1,0,3562,80,1688,1.0,-1314,2180,866,2,1,-0.8999999999999999,-1.4523687548277808,0.8999999999999999,1.0998775240632583,0.5821553501131095,0.2460465160176667,4.33,4.33,8.66,3.1,4.33,4.33,2.0,1.1,1,0.5058452363277071,0.16633695978260807,1.159250349998111,-0.896106338313104,0.37068178295328935,0.3886520375779001,-0.4102307773455109,-1.8623197497902193,1.8623197497902193,1,1,0
54,1,55,50,63_kitkat.png,1.85,20_crunch.png,1.1,0,2447,94,2441,1.0,-323,1173,850,2,1,-0.75,-1.2103072956898175,0.75,0.6822025149253121,1.6292870291174182,-0.4558568759798562,5.0,0.83,5.83,2.95,5.0,0.83,1.85,1.1,1,-0.8245841491810485,-0.07128726847827055,0.8157687648134849,-0.896106338313104,0.851256085129295,-2.0438620192393517,-0.4102307773455109,-0.4606294672265935,0.4606294672265935,1,1,0
55,1,56,13,117_yogurt_raisins.png,1.25,103_nakd_berry.png,1.85,1,2120,48,2342,1.0,486,606,1092,1,2,0.6000000000000001,0.968245836551854,0.6000000000000001,0.2645275057873658,-1.811288487611024,-0.6617065703145556,3.08,2.58,5.66,3.1,2.58,3.08,1.85,1.25,1,-0.9045039355897017,0.16633695978260807,0.8157687648134849,-0.5611133146446553,-0.8845496033273226,-0.48010298271397556,-1.1561049179737128,0.6836363638470424,0.6836363638470424,0,0,1
56,1,57,4,44_walkers_french_fries.png,2.0,111_propercorn_sweetnsalty.png,2.0,1,6932,60,2057,1.0,-989,3262,2273,7,2,0.0,1.0451085762029443e-17,0.0,-1.4061725307644208,-0.9137470484644742,2.3674944362254258,4.33,5.0,9.33,4.0,5.0,4.33,2.0,2.0,1,0.8208232180559283,1.5920823293478805,1.159250349998111,1.113851803697589,0.851256085129295,0.3886520375779001,3.3191399257954983,-1.4026332292723802,1.4026332292723802,0,1,0
57,1,58,15,57_food_doctor_mild_korma_crisps.png,1.25,108_chilli_nuts.png,1.7,1,4274,58,2353,1.0,429,1612,2041,3,2,0.45,0.7261843774138904,0.45,-0.15314750335058114,-1.0633372883222325,0.694257471266309,0.08,3.33,3.41,2.95,3.33,0.08,1.7,1.25,1,-1.962265814527758,-0.07128726847827055,0.4722871796288583,-0.5611133146446553,-0.34659329492134605,-2.5651150314144773,0.335643363282691,0.6030144202485291,0.6030144202485291,0,1,1
58,1,59,49,52_discos_salt_vinegar.png,1.7,60_caramel_rice_crisps.png,1.4,0,6854,62,1310,1.0,-1032,3542,2510,4,1,-0.30000000000000004,-0.4841229182759271,0.30000000000000004,-0.5708225124885274,-0.7641568086067158,2.3183926742740297,4.58,3.08,7.66,3.1,4.58,3.08,1.7,1.4,1,0.035728845688570834,0.16633695978260807,0.4722871796288583,-0.22612029097620662,0.5500005524219482,-0.48010298271397556,1.0815175039108929,-1.4634532919870482,1.4634532919870482,0,1,0
59,1,60,37,13_fruit_pastilles.png,1.1,115_shapers_blueberry.png,1.1,0,6698,66,2809,1.0,-1497,3459,1962,4,1,0.0,1.0451085762029443e-17,0.0,-1.4061725307644208,-0.4649763288911991,2.2201891503712377,4.33,1.33,5.66,2.2,4.33,1.33,1.1,1.1,1,-0.9045039355897017,-1.2594084097826643,-0.9016391611096468,-0.896106338313104,0.37068178295328935,-1.6963600111226014,1.0815175039108929,-2.1211586213433407,2.1211586213433407,0,1,0
60,1,61,40,2_maynards_winegums.png,1.1,27_mars.png,0.95,0,2913,70,1767,1.0,-249,1325,1076,2,1,-0.15000000000000013,-0.2420614591379637,0.15000000000000013,-0.988497521626474,-0.16579584917568232,-0.16250532380869415,4.08,4.58,8.66,2.05,4.08,4.58,1.1,0.95,1,0.5058452363277071,-1.4970326380435437,-0.9016391611096468,-1.2310993619815531,0.19136301348463047,0.5624030416362753,-0.4102307773455109,-0.35596238255483936,0.35596238255483936,0,1,0
61,1,62,47,51_smarties.png,1.7,34_hobnob_flapjack.png,1.55,0,4513,52,1855,1.0,-1371,2589,1218,4,1,-0.1499999999999999,-0.24206145913796334,0.1499999999999999,-0.9884975216264744,-1.5121080078955076,0.8447103059635359,5.0,1.08,6.08,3.25,5.0,1.08,1.7,1.55,1,-0.7070550515212645,0.4039611880434867,0.4722871796288583,0.10887273269224258,0.851256085129295,-1.8701110151809766,1.0815175039108929,-1.9429416933887325,1.9429416933887325,0,1,0
62,1,63,43,103_nakd_berry.png,1.85,35_mms_plain.png,2.0,1,2110,72,1571,1.0,361,674,1035,1,2,0.1499999999999999,0.24206145913796334,0.1499999999999999,-0.9884975216264744,-0.016205609317923964,-0.6680016680006321,2.58,4.83,7.41,3.85,4.83,2.58,2.0,1.85,1,-0.08180025197121323,1.3544581010870018,1.159250349998111,0.7788587800291404,0.729319321890607,-0.8276049908307258,-1.1561049179737128,0.506833855955566,0.506833855955566,0,0,1
63,1,64,34,19_pistachios.png,1.7,110_bombay_mix.png,1.4,0,3385,70,1517,1.0,-307,1389,1082,1,1,-0.30000000000000004,-0.4841229182759271,0.30000000000000004,-0.5708225124885274,-0.16579584917568232,0.13462328697411372,4.33,3.58,7.91,3.1,4.33,3.58,1.7,1.4,1,0.15325794334835488,0.16633695978260807,0.4722871796288583,-0.22612029097620662,0.37068178295328935,-0.13260097459722528,-1.1561049179737128,-0.4379987462164845,0.4379987462164845,0,0,0
64,1,65,6,36_nature_valley_protein_bars.png,1.4,111_propercorn_sweetnsalty.png,2.0,1,2456,82,1369,1.0,613,688,1301,1,2,0.6000000000000001,0.968245836551854,0.6000000000000001,0.2645275057873658,0.7317455899708678,-0.45019128806238734,3.83,5.0,8.83,3.4,5.0,3.83,2.0,1.4,1,0.5857650227363602,0.6415854163043653,1.159250349998111,-0.22612029097620662,0.851256085129295,0.04115002946114985,-1.1561049179737128,0.8632677118647827,0.8632677118647827,1,0,1
65,1,66,42,63_kitkat.png,1.85,19_pistachios.png,1.7,0,2136,82,3149,1.0,-146,934,788,2,1,-0.15000000000000013,-0.2420614591379637,0.15000000000000013,-0.988497521626474,0.7317455899708678,-0.6516344140168333,5.0,4.33,9.33,3.55,5.0,4.33,1.85,1.7,1,0.8208232180559283,0.8792096445652439,0.8157687648134849,0.44386575636069125,0.851256085129295,0.3886520375779001,-0.4102307773455109,-0.2102771160522627,0.2102771160522627,1,1,0
66,1,67,36,58_walnut_whip.png,1.1,23_kp_grazing_mix.png,1.55,1,7010,74,3076,1.0,398,2716,3114,4,2,0.45,0.7261843774138904,0.45,-0.15314750335058114,0.1333846305398344,2.4165961981768223,0.33,2.58,2.91,2.6500000000000004,2.58,0.33,1.55,1.1,1,-2.197324009847326,-0.5465357250000278,0.12880559444423215,-0.896106338313104,-0.8845496033273226,-2.391364027356102,1.0815175039108929,0.559167398291443,0.559167398291443,0,1,1
67,1,68,16,116_boots_caramels.png,0.95,104_graze_sriracha.png,0.65,0,4784,58,2323,1.0,594,1718,2312,2,1,-0.29999999999999993,-0.4841229182759269,0.29999999999999993,-0.5708225124885278,-1.0633372883222325,1.0153074532562074,1.08,0.33,1.41,1.6,1.08,0.33,0.95,0.65,1,-2.9024985958060308,-2.2099053228261796,-1.2451207462942735,-1.9010854093184508,-1.9604622201392756,-2.391364027356102,-0.4102307773455109,0.8363937306652782,0.8363937306652782,0,1,1
68,1,69,7,30_starburst_original.png,1.1,62_cadbury_wispa.png,1.55,1,2697,68,1864,1.0,431,958,1389,2,2,0.45,0.7261843774138904,0.45,-0.15314750335058114,-0.3153860890334407,-0.2984794338279452,4.83,3.33,8.16,2.6500000000000004,3.33,4.83,1.55,1.1,1,0.27078704100813894,-0.5465357250000278,0.12880559444423215,-0.896106338313104,-0.34659329492134605,0.7361540456946504,-0.4102307773455109,0.6058432603747927,0.6058432603747927,0,1,1
69,1,70,58,5_caramello.png,1.25,34_hobnob_flapjack.png,1.55,1,4654,48,2271,1.0,1377,1296,2673,3,2,0.30000000000000004,0.4841229182759271,0.30000000000000004,-0.5708225124885274,-1.811288487611024,0.9334711833372136,2.83,1.08,3.91,2.8,1.08,2.83,1.55,1.25,1,-1.72720761920819,-0.30891149673914986,0.12880559444423215,-0.5611133146446553,-1.9604622201392756,-0.6538539867723507,0.335643363282691,1.943884640097487,1.943884640097487,0,1,1
70,1,71,2,107_graze_scream.png,1.55,109_kp_roast.png,2.3,1,1916,90,3352,1.0,284,620,904,1,2,0.7499999999999998,1.210307295689817,0.7499999999999998,0.6822025149253115,1.330106549401901,-0.790126563110515,2.83,5.0,7.83,3.85,5.0,2.83,2.3,1.55,1,0.11564863209722397,1.3544581010870018,1.8462135203673633,0.10887273269224258,0.851256085129295,-0.6538539867723507,-1.1561049179737128,0.3979235110944164,0.3979235110944164,1,0,1
71,1,72,51,59_crunchie.png,1.7,5_caramello.png,1.25,0,2033,80,3897,1.0,-345,951,606,2,1,-0.45,-0.7261843774138904,0.45,-0.15314750335058114,0.5821553501131095,-0.7164739201834206,5.0,2.83,7.83,2.95,5.0,2.83,1.7,1.25,1,0.11564863209722397,-0.07128726847827055,0.4722871796288583,-0.5611133146446553,0.851256085129295,-0.6538539867723507,-0.4102307773455109,-0.49174670861549336,0.49174670861549336,1,1,0
72,1,73,10,48_mentos_mint.png,0.95,14_maltesers.png,1.85,1,1441,80,2484,1.0,52,514,566,1,2,0.9000000000000001,1.4523687548277813,0.9000000000000001,1.099877524063259,0.5821553501131095,-1.0891437031991458,3.58,5.0,8.58,2.8,5.0,3.58,1.85,0.95,1,0.46823592507657613,-0.30891149673914986,0.8157687648134849,-1.2310993619815531,0.851256085129295,-0.13260097459722528,-1.1561049179737128,0.06977805644783606,0.06977805644783606,1,0,1
73,1,74,39,50_nakd_rhubarb_and_custard.png,0.65,39_milkyway.png,1.25,1,3579,76,1792,1.0,-447,1624,1177,5,2,0.6,0.968245836551854,0.6,0.26452750578736545,0.2829748703975928,0.25674818208399663,0.0,4.08,4.08,1.9,4.08,0.0,1.25,0.65,1,-1.6472878327995368,-1.7346568663044222,-0.5581575759250207,-1.9010854093184508,0.19136301348463047,-2.620715352713157,1.8273916445390948,-0.6360175550549382,0.6360175550549382,0,1,0
74,1,75,45,51_smarties.png,1.7,43_mccoys_steak_crisps.png,2.0,1,7377,48,3060,1.0,-1097,3619,2522,4,1,0.30000000000000004,0.4841229182759271,0.30000000000000004,-0.5708225124885274,-1.811288487611024,2.6476262832558275,5.0,5.0,10.0,3.7,5.0,5.0,2.0,1.7,1,1.1358011997841495,1.1168338728261231,1.159250349998111,0.44386575636069125,0.851256085129295,0.8543047284543455,1.0815175039108929,-1.555390596090616,1.555390596090616,0,1,0
75,1,76,44,102_propercorn_worcester.png,2.3,26_yorkie.png,1.7,0,2921,62,2942,1.0,-120,1282,1162,2,1,-0.5999999999999999,-0.9682458365518538,0.5999999999999999,0.2645275057873652,-0.7641568086067158,-0.15746924565983295,4.83,3.58,8.41,4.0,4.83,3.58,2.3,1.7,1,0.388316138667923,1.5920823293478805,1.8462135203673633,0.44386575636069125,0.729319321890607,-0.13260097459722528,-0.4102307773455109,-0.17350219441083561,0.17350219441083561,0,1,0
76,1,77,12,64_nestle_aero_mint.png,1.55,102_propercorn_worcester.png,2.3,0,6398,54,4096,1.0,-1078,3234,2156,4,1,0.7499999999999998,1.210307295689817,0.7499999999999998,0.6822025149253115,-1.3625177680377492,2.0313362197889444,5.0,4.83,9.83,3.85,5.0,4.83,1.55,2.3,0,1.0558814133754963,1.3544581010870018,0.12880559444423215,1.7838378510344866,0.851256085129295,0.7361540456946504,1.0815175039108929,-1.5285166148911116,1.5285166148911116,0,1,0
77,1,78,9,50_nakd_rhubarb_and_custard.png,0.65,47_daim.png,1.7,1,2919,72,3229,1.0,1028,704,1732,1,2,1.0499999999999998,1.6944302139657443,1.0499999999999998,1.5175525332012048,-0.016205609317923964,-0.15872826519704827,0.0,3.83,3.83,2.35,3.83,0.0,1.7,0.65,1,-1.7648169304593209,-1.0217841815217856,0.4722871796288583,-1.9010854093184508,0.012044244015971631,-2.620715352713157,-1.1561049179737128,1.4502520380644845,1.4502520380644845,0,0,1
78,1,79,1,62_cadbury_wispa.png,1.55,47_daim.png,1.7,0,4737,76,2358,1.0,-573,2273,1700,4,1,0.1499999999999999,0.24206145913796334,0.1499999999999999,-0.9884975216264744,0.2829748703975928,0.985720494131648,3.33,3.83,7.16,3.25,3.33,3.83,1.55,1.7,0,-0.19932934963099727,0.4039611880434867,0.12880559444423215,0.44386575636069125,-0.34659329492134605,0.04115002946114985,1.0815175039108929,-0.8142344830095464,0.8142344830095464,0,1,0
79,1,80,33,26_yorkie.png,1.7,58_walnut_whip.png,1.1,0,3459,82,2203,1.0,-48,1414,1366,2,1,-0.5999999999999999,-0.9682458365518538,0.5999999999999999,0.2645275057873652,0.7317455899708678,0.18120700985107932,3.58,0.33,3.91,2.8,3.58,0.33,1.7,1.1,1,-1.72720761920819,-0.30891149673914986,0.4722871796288583,-0.896106338313104,-0.16727452545268723,-2.391364027356102,-0.4102307773455109,-0.07166394986534513,0.07166394986534513,1,1,0
80,1,81,7,62_cadbury_wispa.png,1.55,30_starburst_original.png,1.1,1,2348,82,1872,2.0,196,836,1032,1,2,-0.45,-0.7261843774138904,0.45,-0.15314750335058114,0.7317455899708678,-0.5181783430720128,3.33,4.83,8.16,2.6500000000000004,4.83,3.33,1.1,1.55,1,0.27078704100813894,-0.5465357250000278,-0.9016391611096468,0.10887273269224258,0.729319321890607,-0.30635197865560043,-1.1561049179737128,0.273454545538817,0.273454545538817,1,0,1
81,1,82,34,110_bombay_mix.png,1.4,19_pistachios.png,1.7,0,2809,64,2956,2.0,-930,1498,568,2,1,0.30000000000000004,0.4841229182759271,0.30000000000000004,-0.5708225124885274,-0.6145665687489574,-0.2279743397438891,3.58,4.33,7.91,3.1,3.58,4.33,1.4,1.7,1,0.15325794334835488,0.16633695978260807,-0.2146759907403945,0.44386575636069125,-0.16727452545268723,0.3886520375779001,-0.4102307773455109,-1.3191824455476033,1.3191824455476033,0,0,0
82,1,83,33,58_walnut_whip.png,1.1,26_yorkie.png,1.7,0,1992,78,2819,2.0,-471,1049,578,2,1,0.5999999999999999,0.9682458365518538,0.5999999999999999,0.2645275057873652,0.4325651102553511,-0.7422838206963341,0.33,3.58,3.91,2.8,0.33,3.58,1.1,1.7,1,-1.72720761920819,-0.30891149673914986,-0.9016391611096468,0.44386575636069125,-2.498418528545252,-0.13260097459722528,-0.4102307773455109,-0.6699636365701016,0.6699636365701016,1,0,0
83,1,84,10,14_maltesers.png,1.85,48_mentos_mint.png,0.95,1,1534,88,1986,2.0,-734,1578,844,1,2,-0.9000000000000001,-1.4523687548277813,0.9000000000000001,1.099877524063259,1.1805163095441429,-1.0305992947186349,5.0,3.58,8.58,2.8,3.58,5.0,0.95,1.85,1,0.46823592507657613,-0.30891149673914986,-1.2451207462942735,0.7788587800291404,-0.16727452545268723,0.8543047284543455,-1.1561049179737128,-1.0419561131737682,1.0419561131737682,1,0,0
84,1,85,31,27_mars.png,0.95,109_kp_roast.png,2.3,0,3023,80,2073,2.0,-375,1475,1100,2,1,1.35,2.178553132241672,1.35,2.352902551477098,0.5821553501131095,-0.09325924926185332,4.58,5.0,9.58,3.25,4.58,5.0,0.95,2.3,1,0.9383523157157123,0.4039611880434867,-1.2451207462942735,1.7838378510344866,0.5500005524219482,0.8543047284543455,-0.4102307773455109,-0.5341793105094477,0.5341793105094477,1,0,0
85,1,86,4,111_propercorn_sweetnsalty.png,2.0,44_walkers_french_fries.png,2.0,0,3452,84,2307,2.0,-825,1857,1032,4,1,0.0,1.0451085762029443e-17,0.0,-1.4061725307644208,0.8813358298286262,0.17680044147082585,5.0,4.33,9.33,4.0,5.0,4.33,2.0,2.0,1,0.8208232180559283,1.5920823293478805,1.159250349998111,1.113851803697589,0.851256085129295,0.3886520375779001,1.0815175039108929,-1.170668338918763,1.170668338918763,1,1,0
86,1,87,55,45_gb_ginger.png,2.0,23_kp_grazing_mix.png,1.55,1,3961,78,1829,2.0,403,1484,1887,3,2,-0.45,-0.7261843774138904,0.45,-0.15314750335058114,0.4325651102553511,0.4972209136921165,4.83,2.58,7.41,3.55,2.58,4.83,1.55,2.0,1,-0.08180025197121323,0.8792096445652439,0.12880559444423215,1.113851803697589,-0.8845496033273226,0.7361540456946504,0.335643363282691,0.5662394986071021,0.5662394986071021,1,1,1
87,1,88,8,43_mccoys_steak_crisps.png,2.0,115_shapers_blueberry.png,1.1,1,2636,68,2174,2.0,146,984,1130,3,2,-0.8999999999999999,-1.4523687548277808,0.8999999999999999,1.0998775240632583,-0.3153860890334407,-0.33687952971301144,5.0,1.33,6.33,3.1,1.33,5.0,1.1,2.0,1,-0.5895259538614803,0.16633695978260807,-0.9016391611096468,1.113851803697589,-1.781143450670617,0.8543047284543455,0.335643363282691,0.2027335423822264,0.2027335423822264,0,1,1
88,1,89,54,11_lindt_orange.png,2.0,2_maynards_winegums.png,1.1,1,1898,76,1720,2.0,143,708,851,1,2,-0.8999999999999999,-1.4523687548277808,0.8999999999999999,1.0998775240632583,0.2829748703975928,-0.8014577389454526,4.75,4.08,8.83,3.1,4.08,4.75,1.1,2.0,1,0.5857650227363602,0.16633695978260807,-0.9016391611096468,1.113851803697589,0.19136301348463047,0.6805537243959703,-1.1561049179737128,0.19849028219283096,0.19849028219283096,1,0,1
89,1,90,11,32_snickers.png,2.3,18_galaxy_bar.png,1.1,1,1725,82,1565,2.0,39,652,691,1,2,-1.1999999999999995,-1.936491673103708,1.1999999999999995,1.9352275423391512,0.7317455899708678,-0.9103629289145748,5.0,4.75,9.75,3.4,4.75,5.0,1.1,2.3,1,1.0182721021243655,0.6415854163043653,-0.9016391611096468,1.7838378510344866,0.6719373156606362,0.8543047284543455,-1.1561049179737128,0.051390595627122504,0.051390595627122504,1,0,1
90,1,91,5,32_snickers.png,2.3,113_walkers_cheese.png,2.0,1,4336,52,3990,2.0,-151,1932,1781,5,2,-0.2999999999999998,-0.4841229182759267,0.2999999999999998,-0.5708225124885281,-1.5121080078955076,0.7332870769199828,5.0,4.33,9.33,4.3,4.33,5.0,2.0,2.3,1,0.8208232180559283,2.0673307858696375,1.159250349998111,1.7838378510344866,0.37068178295328935,0.8543047284543455,1.8273916445390948,-0.21734921636792176,0.21734921636792176,0,1,0
91,1,92,57,48_mentos_mint.png,0.95,40_nestle_rolo.png,1.1,0,2037,64,2046,2.0,-464,1024,560,2,1,0.15000000000000013,0.2420614591379637,0.15000000000000013,-0.988497521626474,-0.6145665687489574,-0.7139558811089901,3.58,4.08,7.66,2.05,3.58,4.08,0.95,1.1,1,0.035728845688570834,-1.4970326380435437,-1.2451207462942735,-0.896106338313104,-0.16727452545268723,0.214901033519525,-0.4102307773455109,-0.6600626961281789,0.6600626961281789,0,0,0
92,1,93,32,55_bassetts_licorice_allsorts.png,0.35,24_twix.png,1.85,0,2479,86,1253,2.0,-270,1144,874,2,1,1.5,2.4206145913796346,1.5,2.770577560615045,1.030926069686385,-0.4357125633844115,4.33,5.0,9.33,2.2,4.33,5.0,0.35,1.85,1,0.8208232180559283,-1.2594084097826643,-2.6190470870327784,0.7788587800291404,0.37068178295328935,0.8543047284543455,-0.4102307773455109,-0.38566520388060743,0.38566520388060743,1,0,0
93,1,94,2,109_kp_roast.png,2.3,107_graze_scream.png,1.55,1,3389,66,2600,2.0,248,1312,1560,3,2,-0.7499999999999998,-1.210307295689817,0.7499999999999998,0.6822025149253115,-0.4649763288911991,0.1371413260485443,5.0,2.83,7.83,3.85,2.83,5.0,1.55,2.3,1,0.11564863209722397,1.3544581010870018,0.12880559444423215,1.7838378510344866,-0.7052308338586638,0.8543047284543455,0.335643363282691,0.34700438882167123,0.34700438882167123,0,1,1
94,1,95,25,52_discos_salt_vinegar.png,1.7,45_gb_ginger.png,2.0,0,2339,70,2130,2.0,-107,1003,896,2,1,0.30000000000000004,0.4841229182759271,0.30000000000000004,-0.5708225124885274,-0.16579584917568232,-0.5238439309894817,4.58,4.83,9.41,3.7,4.58,4.83,1.7,2.0,1,0.8584325293070593,1.1168338728261231,0.4722871796288583,1.113851803697589,0.5500005524219482,0.7361540456946504,-0.4102307773455109,-0.15511473359012207,0.15511473359012207,1,0,0
95,1,96,24,112_lindt_extra_creamy.png,1.85,24_twix.png,1.85,0,3609,54,1947,2.0,-1228,2118,890,4,1,0.0,1.0451085762029443e-17,0.0,-1.4061725307644208,-1.3625177680377492,0.2756334751422259,4.08,5.0,9.08,3.7,4.08,5.0,1.85,1.85,1,0.7032941203961443,1.1168338728261231,0.8157687648134849,0.7788587800291404,0.19136301348463047,0.8543047284543455,1.0815175039108929,-1.7406796243608835,1.7406796243608835,0,1,0
96,1,97,12,102_propercorn_worcester.png,2.3,64_nestle_aero_mint.png,1.55,1,7371,40,1335,2.0,-986,3730,2744,7,2,-0.7499999999999998,-1.210307295689817,0.7499999999999998,0.6822025149253115,-2.409649447042058,2.6438492246441814,4.83,5.0,9.83,3.85,5.0,4.83,1.55,2.3,1,1.0558814133754963,1.3544581010870018,0.12880559444423215,1.7838378510344866,0.851256085129295,0.7361540456946504,3.3191399257954983,-1.3983899690829849,1.3983899690829849,0,1,0
97,1,98,21,42_dairy_milk_fruit_and_nut.png,1.55,10_hula_hoops_bbq_beef.png,2.0,0,2520,58,1447,2.0,-918,1632,714,2,1,0.45,0.7261843774138904,0.45,-0.15314750335058114,-1.0633372883222325,-0.4099026628714981,4.33,5.0,9.33,3.55,4.33,5.0,1.55,2.0,1,0.8208232180559283,0.8792096445652439,0.12880559444423215,1.113851803697589,0.37068178295328935,0.8543047284543455,-0.4102307773455109,-1.3022094047900215,1.3022094047900215,0,0,0
98,1,99,6,111_propercorn_sweetnsalty.png,2.0,36_nature_valley_protein_bars.png,1.4,1,1761,70,726,2.0,197,584,781,1,2,-0.6000000000000001,-0.968245836551854,0.6000000000000001,0.2645275057873658,-0.16579584917568232,-0.8877005772446998,5.0,3.83,8.83,3.4,3.83,5.0,1.4,2.0,1,0.5857650227363602,0.6415854163043653,-0.2146759907403945,1.113851803697589,0.012044244015971631,0.8543047284543455,-1.1561049179737128,0.2748689656019488,0.2748689656019488,0,0,1
99,1,100,3,41_jelly_babies_berry_mix.png,1.85,108_chilli_nuts.png,1.7,1,2593,78,1573,2.0,1099,552,1651,1,2,-0.15000000000000013,-0.2420614591379637,0.15000000000000013,-0.988497521626474,0.4325651102553511,-0.3639484497631401,4.58,3.33,7.91,3.55,3.33,4.58,1.7,1.85,1,0.15325794334835488,0.8792096445652439,0.4722871796288583,0.7788587800291404,-0.34659329492134605,0.5624030416362753,-1.1561049179737128,1.550675862546843,1.550675862546843,1,0,1
100,1,101,36,23_kp_grazing_mix.png,1.55,58_walnut_whip.png,1.1,1,5772,38,1945,2.0,-1766,3436,1670,3,2,-0.45,-0.7261843774138904,0.45,-0.15314750335058114,-2.559239686899816,1.6372631046405597,2.58,0.33,2.91,2.6500000000000004,0.33,2.58,1.1,1.55,1,-2.197324009847326,-0.5465357250000278,-0.9016391611096468,0.10887273269224258,-2.498418528545252,-0.8276049908307258,0.335643363282691,-2.5016376183257982,2.5016376183257982,0,1,0
101,1,102,28,13_fruit_pastilles.png,1.1,15_jacobs_mini_cheddars.png,1.85,0,1945,62,1639,2.0,-209,941,732,2,1,0.75,1.2103072956898175,0.75,0.6822025149253121,-0.7641568086067158,-0.7718707798208932,4.33,4.83,9.16,2.95,4.33,4.83,1.1,1.85,1,0.7409034316472751,-0.07128726847827055,-0.9016391611096468,0.7788587800291404,0.37068178295328935,0.7361540456946504,-0.4102307773455109,-0.2993855800295669,0.2993855800295669,0,0,0
102,1,103,18,29_mms_peanut.png,1.1,55_bassetts_licorice_allsorts.png,0.35,1,1621,98,1488,2.0,251,532,783,1,2,-0.7500000000000001,-1.2103072956898178,0.7500000000000001,0.6822025149253125,1.9284675088329348,-0.97583194484977,5.0,4.33,9.33,1.4500000000000002,4.33,5.0,0.35,1.1,1,0.8208232180559283,-2.447529551087058,-2.6190470870327784,-0.896106338313104,0.37068178295328935,0.8543047284543455,-1.1561049179737128,0.35124764901106664,0.35124764901106664,1,0,1
103,1,104,56,64_nestle_aero_mint.png,1.55,36_nature_valley_protein_bars.png,1.4,1,2952,68,1844,2.0,10,1226,1236,3,2,-0.15000000000000013,-0.2420614591379637,0.15000000000000013,-0.988497521626474,-0.3153860890334407,-0.13795444283299602,5.0,3.83,8.83,2.95,3.83,5.0,1.4,1.55,1,0.5857650227363602,-0.07128726847827055,-0.2146759907403945,0.10887273269224258,0.012044244015971631,0.8543047284543455,0.335643363282691,0.010372413796299955,0.010372413796299955,0,1,1
104,1,105,26,25_wonderful_almonds.png,1.25,113_walkers_cheese.png,2.0,0,2725,76,2763,2.0,-888,1568,680,2,1,0.75,1.2103072956898175,0.75,0.6822025149253121,0.2829748703975928,-0.28085316030693114,4.58,4.33,8.91,3.25,4.58,4.33,1.25,2.0,1,0.6233743339874911,0.4039611880434867,-0.5581575759250207,1.113851803697589,0.5500005524219482,0.3886520375779001,-0.4102307773455109,-1.2597768028960672,1.2597768028960672,1,0,0
105,1,106,59,30_starburst_original.png,1.1,54_milkyway_magic_stars.png,1.55,0,2591,70,1196,2.0,-652,1380,728,2,1,0.45,0.7261843774138904,0.45,-0.15314750335058114,-0.16579584917568232,-0.3652074693003554,4.83,5.0,9.83,2.6500000000000004,4.83,5.0,1.1,1.55,1,1.0558814133754963,-0.5465357250000278,-0.9016391611096468,0.10887273269224258,0.729319321890607,0.8543047284543455,-0.4102307773455109,-0.9259736679969596,0.9259736679969596,1,0,0
106,1,107,17,60_caramel_rice_crisps.png,1.4,20_crunch.png,1.1,1,3523,64,3762,2.0,303,1428,1731,4,2,-0.2999999999999998,-0.4841229182759267,0.2999999999999998,-0.5708225124885281,-0.6145665687489574,0.22149563504196856,3.08,0.83,3.91,2.5,0.83,3.08,1.1,1.4,1,-1.72720761920819,-0.784159953260907,-0.9016391611096468,-0.22612029097620662,-2.1397809896079347,-0.48010298271397556,1.0815175039108929,0.42479749229392083,0.42479749229392083,0,1,1
107,1,108,20,25_wonderful_almonds.png,1.25,53_eat_natural_almond_apricot.png,1.1,0,7082,74,3691,2.0,-334,3290,2956,6,1,-0.1499999999999999,-0.24206145913796334,0.1499999999999999,-0.9884975216264744,0.1333846305398344,2.4619209015165726,4.58,4.33,8.91,2.35,4.58,4.33,1.25,1.1,0,0.6233743339874911,-1.0217841815217856,-0.5581575759250207,-0.896106338313104,0.5500005524219482,0.3886520375779001,2.5732657851672966,-0.4761880879210434,0.4761880879210434,1,1,0
108,1,109,58,34_hobnob_flapjack.png,1.55,5_caramello.png,1.25,1,4066,88,1163,2.0,416,1434,1850,2,2,-0.30000000000000004,-0.4841229182759271,0.30000000000000004,-0.5708225124885274,1.1805163095441429,0.5633194393959191,1.08,2.83,3.91,2.8,2.83,1.08,1.25,1.55,1,-1.72720761920819,-0.30891149673914986,-0.5581575759250207,0.10887273269224258,-0.7052308338586638,-1.8701110151809766,-0.4102307773455109,0.5846269594278156,0.5846269594278156,1,0,1
109,1,110,27,39_milkyway.png,1.25,10_hula_hoops_bbq_beef.png,2.0,0,2602,64,463,2.0,-1020,1582,562,2,1,0.75,1.2103072956898175,0.75,0.6822025149253121,-0.6145665687489574,-0.3582828618456713,4.08,5.0,9.08,3.25,4.08,5.0,1.25,2.0,1,0.7032941203961443,0.4039611880434867,-0.5581575759250207,1.113851803697589,0.19136301348463047,0.8543047284543455,-0.4102307773455109,-1.4464802512294663,1.4464802512294663,0,0,0
110,1,111,60,110_bombay_mix.png,1.4,57_food_doctor_mild_korma_crisps.png,1.25,1,3239,54,3138,2.0,226,1050,1276,2,2,-0.1499999999999999,-0.24206145913796334,0.1499999999999999,-0.9884975216264744,-1.3625177680377492,0.042714860757397735,3.58,0.08,3.66,2.65,0.08,3.58,1.25,1.4,1,-1.844736716867974,-0.5465357250000284,-0.5581575759250207,-0.22612029097620662,-2.677737298013911,-0.13260097459722528,-0.4102307773455109,0.31588714743277135,0.31588714743277135,0,0,1
111,1,112,53,107_graze_scream.png,1.55,54_milkyway_magic_stars.png,1.55,0,1943,72,3236,2.0,-327,925,598,2,1,0.0,1.0451085762029443e-17,0.0,-1.4061725307644208,-0.016205609317923964,-0.7731297993581085,2.83,5.0,7.83,3.1,2.83,5.0,1.55,1.55,1,0.11564863209722397,0.16633695978260807,0.12880559444423215,0.10887273269224258,-0.7052308338586638,0.8543047284543455,-0.4102307773455109,-0.4662871474791207,0.4662871474791207,1,0,0
112,1,113,22,15_jacobs_mini_cheddars.png,1.85,31_beef_jerky.png,2.0,0,3627,72,2388,2.0,-857,1929,1072,4,1,0.1499999999999999,0.24206145913796334,0.1499999999999999,-0.9884975216264744,-0.016205609317923964,0.2869646509771635,4.83,4.83,9.66,3.85,4.83,4.83,1.85,2.0,1,0.9759616269668433,1.3544581010870018,0.8157687648134849,1.113851803697589,0.729319321890607,0.7361540456946504,1.0815175039108929,-1.215929780938981,1.215929780938981,1,1,0
113,1,114,1,47_daim.png,1.7,62_cadbury_wispa.png,1.55,0,6245,36,2173,2.0,-894,3118,2224,6,1,-0.1499999999999999,-0.24206145913796334,0.1499999999999999,-0.9884975216264744,-2.7088299267575744,1.9350212251919752,3.83,3.33,7.16,3.25,3.83,3.33,1.7,1.55,0,-0.19932934963099727,0.4039611880434867,0.4722871796288583,0.10887273269224258,0.012044244015971631,-0.30635197865560043,2.5732657851672966,-1.2682633232748581,1.2682633232748581,0,1,0
114,1,115,23,14_maltesers.png,1.85,33_walkers_smoky_bacon.png,1.55,1,4574,62,2994,2.0,-1204,2580,1376,3,2,-0.30000000000000004,-0.4841229182759271,0.30000000000000004,-0.5708225124885274,-0.7641568086067158,0.8831104018486021,5.0,3.83,8.83,3.4000000000000004,3.83,5.0,1.55,1.85,1,0.5857650227363602,0.6415854163043659,0.12880559444423215,0.7788587800291404,0.012044244015971631,0.8543047284543455,0.335643363282691,-1.70673354284572,1.70673354284572,0,1,0
115,1,116,9,47_daim.png,1.7,50_nakd_rhubarb_and_custard.png,0.65,1,4327,78,2822,2.0,-239,1950,1711,4,2,-1.0499999999999998,-1.6944302139657443,1.0499999999999998,1.5175525332012048,0.4325651102553511,0.7276214890025141,3.83,0.0,3.83,2.35,0.0,3.83,0.65,1.7,1,-1.7648169304593209,-1.0217841815217856,-1.932083916663526,0.44386575636069125,-2.735119304243882,0.04115002946114985,1.0815175039108929,-0.3418181819235212,0.3418181819235212,1,1,0
116,1,117,29,29_mms_peanut.png,1.1,35_mms_plain.png,2.0,0,6247,38,2440,2.0,-67,3388,3321,5,1,0.8999999999999999,1.4523687548277808,0.8999999999999999,1.0998775240632583,-2.559239686899816,1.9362802447291905,5.0,4.83,9.83,3.1,5.0,4.83,1.1,2.0,1,1.0558814133754963,0.16633695978260807,-0.9016391611096468,1.113851803697589,0.851256085129295,0.7361540456946504,1.8273916445390948,-0.09853793106484958,0.09853793106484958,0,1,0
117,1,118,19,18_galaxy_bar.png,1.1,117_yogurt_raisins.png,1.25,0,2353,50,2173,2.0,-290,1082,792,2,1,0.1499999999999999,0.24206145913796334,0.1499999999999999,-0.9884975216264744,-1.6616982477532658,-0.5150307942289747,4.75,3.08,7.83,2.35,4.75,3.08,1.1,1.25,1,0.11564863209722397,-1.0217841815217856,-0.9016391611096468,-0.5611133146446553,0.6719373156606362,-0.48010298271397556,-0.4102307773455109,-0.4139536051432437,0.4139536051432437,0,0,0
118,1,119,30,56_marshmallows.png,0.95,33_walkers_smoky_bacon.png,1.55,0,4758,52,2395,2.0,-1165,2515,1350,4,1,0.6000000000000001,0.968245836551854,0.6000000000000001,0.2645275057873658,-1.5121080078955076,0.9989401992724086,3.83,3.83,7.66,2.5,3.83,3.83,0.95,1.55,1,0.035728845688570834,-0.784159953260907,-1.2451207462942735,0.10887273269224258,0.012044244015971631,0.04115002946114985,1.0815175039108929,-1.6515711603835792,1.6515711603835792,0,1,0
119,1,120,35,40_nestle_rolo.png,1.1,41_jelly_babies_berry_mix.png,1.85,0,2715,88,1241,2.0,-928,1600,672,2,1,0.75,1.2103072956898175,0.75,0.6822025149253121,1.1805163095441429,-0.2871482579930076,4.08,4.58,8.66,2.95,4.08,4.58,1.1,1.85,1,0.5058452363277071,-0.07128726847827055,-0.9016391611096468,0.7788587800291404,0.19136301348463047,0.5624030416362753,-0.4102307773455109,-1.3163536054213396,1.3163536054213396,1,0,0
120,1,121,24,112_lindt_extra_creamy.png,1.85,24_twix.png,1.85,1,3454,58,1357,1.0,1240,916,2156,3,2,0.0,1.0451085762029443e-17,0.0,-1.4061725307644208,-1.0633372883222325,0.17805946100804115,4.08,5.0,9.08,3.7,5.0,4.08,1.85,1.85,1,0.7032941203961443,1.1168338728261231,0.8157687648134849,0.7788587800291404,0.851256085129295,0.214901033519525,0.335643363282691,1.7501090914484285,1.7501090914484285,0,1,1
121,1,122,1,47_daim.png,1.7,62_cadbury_wispa.png,1.55,1,2478,60,2166,1.0,195,902,1097,4,2,-0.1499999999999999,-0.24206145913796334,0.1499999999999999,-0.9884975216264744,-0.9137470484644742,-0.4363420731530192,3.83,3.33,7.16,3.25,3.33,3.83,1.55,1.7,0,-0.19932934963099727,0.4039611880434867,0.12880559444423215,0.44386575636069125,-0.34659329492134605,0.04115002946114985,1.0815175039108929,0.2720401254756852,0.2720401254756852,0,1,1
122,1,123,28,13_fruit_pastilles.png,1.1,15_jacobs_mini_cheddars.png,1.85,1,1728,56,1719,1.0,377,484,861,1,2,0.75,1.2103072956898175,0.75,0.6822025149253121,-1.212927528179991,-0.9084743996087521,4.33,4.83,9.16,2.95,4.83,4.33,1.85,1.1,1,0.7409034316472751,-0.07128726847827055,0.8157687648134849,-0.896106338313104,0.729319321890607,0.3886520375779001,-1.1561049179737128,0.529464576965675,0.529464576965675,0,0,1
123,1,124,3,41_jelly_babies_berry_mix.png,1.85,108_chilli_nuts.png,1.7,0,2014,74,1177,1.0,-267,943,676,2,1,-0.15000000000000013,-0.2420614591379637,0.15000000000000013,-0.988497521626474,0.1333846305398344,-0.7284346057869658,4.58,3.33,7.91,3.55,4.58,3.33,1.85,1.7,1,0.15325794334835488,0.8792096445652439,0.8157687648134849,0.44386575636069125,0.5500005524219482,-0.30635197865560043,-0.4102307773455109,-0.381421943691212,0.381421943691212,0,1,0
124,1,125,57,48_mentos_mint.png,0.95,40_nestle_rolo.png,1.1,1,519,88,3180,1.0,-201,201,0,0,1,0.15000000000000013,0.2420614591379637,0.15000000000000013,-0.988497521626474,1.1805163095441429,-1.6695517098553934,3.58,4.08,7.66,2.05,4.08,3.58,1.1,0.95,1,0.035728845688570834,-1.4970326380435437,-0.9016391611096468,-1.2310993619815531,0.19136301348463047,-0.13260097459722528,-1.9019790586019147,-0.2880702195245124,0.2880702195245124,1,0,0
125,1,126,19,18_galaxy_bar.png,1.1,117_yogurt_raisins.png,1.25,1,5492,64,2395,1.0,385,2198,2583,5,2,0.1499999999999999,0.24206145913796334,0.1499999999999999,-0.9884975216264744,-0.6145665687489574,1.4610003694304192,4.75,3.08,7.83,2.35,3.08,4.75,1.25,1.1,1,0.11564863209722397,-1.0217841815217856,-0.5581575759250207,-0.896106338313104,-0.5259120643900049,0.6805537243959703,1.8273916445390948,0.5407799374707294,0.5407799374707294,0,1,1
126,1,127,33,58_walnut_whip.png,1.1,26_yorkie.png,1.7,1,3216,70,2004,1.0,-84,1330,1246,3,2,0.5999999999999999,0.9682458365518538,0.5999999999999999,0.2645275057873652,-0.16579584917568232,0.028236136079421926,0.33,3.58,3.91,2.8,3.58,0.33,1.7,1.1,1,-1.72720761920819,-0.30891149673914986,0.4722871796288583,-0.896106338313104,-0.16727452545268723,-2.391364027356102,0.335643363282691,-0.12258307213809039,0.12258307213809039,0,1,0
127,1,128,17,60_caramel_rice_crisps.png,1.4,20_crunch.png,1.1,0,2185,68,2332,1.0,-327,1051,724,2,1,-0.2999999999999998,-0.4841229182759267,0.2999999999999998,-0.5708225124885281,-0.3153860890334407,-0.6207884353550588,3.08,0.83,3.91,2.5,3.08,0.83,1.4,1.1,1,-1.72720761920819,-0.784159953260907,-0.2146759907403945,-0.896106338313104,-0.5259120643900049,-2.0438620192393517,-0.4102307773455109,-0.4662871474791207,0.4662871474791207,0,1,0
128,1,129,5,32_snickers.png,2.3,113_walkers_cheese.png,2.0,0,1467,92,2002,1.0,-118,568,450,3,1,-0.2999999999999998,-0.4841229182759267,0.2999999999999998,-0.5708225124885281,1.4796967892596598,-1.072776449215347,5.0,4.33,9.33,4.3,5.0,4.33,2.3,2.0,1,0.8208232180559283,2.0673307858696375,1.8462135203673633,1.113851803697589,0.851256085129295,0.3886520375779001,0.335643363282691,-0.17067335428457198,0.17067335428457198,1,1,0
129,1,130,9,47_daim.png,1.7,50_nakd_rhubarb_and_custard.png,0.65,0,1707,84,1641,1.0,-104,732,628,2,1,-1.0499999999999998,-1.6944302139657443,1.0499999999999998,1.5175525332012048,0.8813358298286262,-0.9216941047495124,3.83,0.0,3.83,2.35,3.83,0.0,1.7,0.65,1,-1.7648169304593209,-1.0217841815217856,0.4722871796288583,-1.9010854093184508,0.012044244015971631,-2.620715352713157,-0.4102307773455109,-0.15087147340072662,0.15087147340072662,1,1,0
130,1,131,59,30_starburst_original.png,1.1,54_milkyway_magic_stars.png,1.55,1,1472,80,1840,1.0,426,512,938,2,2,0.45,0.7261843774138904,0.45,-0.15314750335058114,0.5821553501131095,-1.0696289003723087,4.83,5.0,9.83,2.6500000000000004,5.0,4.83,1.55,1.1,1,1.0558814133754963,-0.5465357250000278,0.12880559444423215,-0.896106338313104,0.851256085129295,0.7361540456946504,-0.4102307773455109,0.5987711600591338,0.5987711600591338,1,1,1
131,1,132,8,43_mccoys_steak_crisps.png,2.0,115_shapers_blueberry.png,1.1,0,2425,78,1365,1.0,608,1025,1633,2,1,-0.8999999999999999,-1.4523687548277808,0.8999999999999999,1.0998775240632583,0.4325651102553511,-0.4697060908892242,5.0,1.33,6.33,3.1,5.0,1.33,2.0,1.1,1,-0.5895259538614803,0.16633695978260807,1.159250349998111,-0.896106338313104,0.851256085129295,-1.6963600111226014,-0.4102307773455109,0.8561956115491236,0.8561956115491236,1,1,1
132,1,133,12,102_propercorn_worcester.png,2.3,64_nestle_aero_mint.png,1.55,1,5621,46,1895,1.0,-133,2386,2253,6,2,-0.7499999999999998,-1.210307295689817,0.7499999999999998,0.6822025149253115,-1.960878727468783,1.542207129580805,4.83,5.0,9.83,3.85,5.0,4.83,1.55,2.3,0,1.0558814133754963,1.3544581010870018,0.12880559444423215,1.7838378510344866,0.851256085129295,0.7361540456946504,2.5732657851672966,-0.19188965523154916,0.19188965523154916,0,1,0
133,1,134,30,56_marshmallows.png,0.95,33_walkers_smoky_bacon.png,1.55,1,3216,66,2019,1.0,4,1610,1614,4,2,0.6000000000000001,0.968245836551854,0.6000000000000001,0.2645275057873658,-0.4649763288911991,0.028236136079421926,3.83,3.83,7.66,2.5,3.83,3.83,1.55,0.95,1,0.035728845688570834,-0.784159953260907,0.12880559444423215,-1.2310993619815531,0.012044244015971631,0.04115002946114985,1.0815175039108929,0.001885893417509083,0.001885893417509083,0,1,0
134,1,135,31,27_mars.png,0.95,109_kp_roast.png,2.3,1,3167,78,2131,1.0,333,1164,1497,3,2,1.35,2.178553132241672,1.35,2.352902551477098,0.4325651102553511,-0.002609842582352618,4.58,5.0,9.58,3.25,5.0,4.58,2.3,0.95,1,0.9383523157157123,0.4039611880434867,1.8462135203673633,-1.2310993619815531,0.851256085129295,0.5624030416362753,0.335643363282691,0.4672300941878752,0.4672300941878752,1,1,1
135,1,136,18,29_mms_peanut.png,1.1,55_bassetts_licorice_allsorts.png,0.35,0,1939,92,1377,1.0,-324,932,608,2,1,-0.7500000000000001,-1.2103072956898178,0.7500000000000001,0.6822025149253125,1.4796967892596598,-0.7756478384325391,5.0,4.33,9.33,1.4500000000000002,5.0,4.33,1.1,0.35,1,0.8208232180559283,-2.447529551087058,-0.9016391611096468,-2.5710714566553485,0.851256085129295,0.3886520375779001,-0.4102307773455109,-0.4620438872897253,0.4620438872897253,1,0,0
136,1,137,56,64_nestle_aero_mint.png,1.55,36_nature_valley_protein_bars.png,1.4,0,2066,90,2201,1.0,-213,941,728,2,1,-0.15000000000000013,-0.2420614591379637,0.15000000000000013,-0.988497521626474,1.330106549401901,-0.6957000978193684,5.0,3.83,8.83,2.95,5.0,3.83,1.55,1.4,1,0.5857650227363602,-0.07128726847827055,0.12880559444423215,-0.22612029097620662,0.851256085129295,0.04115002946114985,-0.4102307773455109,-0.3050432602820941,0.3050432602820941,1,1,0
137,1,138,26,25_wonderful_almonds.png,1.25,113_walkers_cheese.png,2.0,1,1561,76,3172,1.0,-7,672,665,1,2,0.75,1.2103072956898175,0.75,0.6822025149253121,0.2829748703975928,-1.0136025309662284,4.58,4.33,8.91,3.25,4.33,4.58,2.0,1.25,1,0.6233743339874911,0.4039611880434867,1.159250349998111,-0.5611133146446553,0.37068178295328935,0.5624030416362753,-1.1561049179737128,-0.013672727276940848,0.013672727276940848,0,0,0
138,1,139,23,14_maltesers.png,1.85,33_walkers_smoky_bacon.png,1.55,0,2037,70,1694,1.0,-350,986,636,2,1,-0.30000000000000004,-0.4841229182759271,0.30000000000000004,-0.5708225124885274,-0.16579584917568232,-0.7139558811089901,5.0,3.83,8.83,3.4000000000000004,5.0,3.83,1.85,1.55,1,0.5857650227363602,0.6415854163043659,0.8157687648134849,0.10887273269224258,0.851256085129295,0.04115002946114985,-0.4102307773455109,-0.4988188089311524,0.4988188089311524,0,0,0
139,1,140,22,15_jacobs_mini_cheddars.png,1.85,31_beef_jerky.png,2.0,1,3620,76,1704,1.0,-99,1546,1447,4,2,0.1499999999999999,0.24206145913796334,0.1499999999999999,-0.9884975216264744,0.2829748703975928,0.28255808259690995,4.83,4.83,9.66,3.85,4.83,4.83,2.0,1.85,1,0.9759616269668433,1.3544581010870018,1.159250349998111,0.7788587800291404,0.729319321890607,0.7361540456946504,1.0815175039108929,-0.14379937308506757,0.14379937308506757,0,1,0
140,1,141,32,55_bassetts_licorice_allsorts.png,0.35,24_twix.png,1.85,1,1235,90,1756,1.0,-31,452,421,1,2,1.5,2.4206145913796346,1.5,2.770577560615045,1.330106549401901,-1.2188227155323204,4.33,5.0,9.33,2.2,5.0,4.33,1.85,0.35,1,0.8208232180559283,-1.2594084097826643,0.8157687648134849,-2.5710714566553485,0.851256085129295,0.3886520375779001,-1.1561049179737128,-0.04761880879210433,0.04761880879210433,1,0,0
141,1,142,34,110_bombay_mix.png,1.4,19_pistachios.png,1.7,1,3726,80,1524,1.0,-923,2006,1083,3,2,0.30000000000000004,0.4841229182759271,0.30000000000000004,-0.5708225124885274,0.5821553501131095,0.34928611806932025,3.58,4.33,7.91,3.1,4.33,3.58,1.7,1.4,1,0.15325794334835488,0.16633695978260807,0.4722871796288583,-0.22612029097620662,0.37068178295328935,-0.13260097459722528,0.335643363282691,-1.3092815051056805,1.3092815051056805,1,1,0
142,1,143,20,25_wonderful_almonds.png,1.25,53_eat_natural_almond_apricot.png,1.1,1,1764,90,1256,1.0,516,444,960,1,2,-0.1499999999999999,-0.24206145913796334,0.1499999999999999,-0.9884975216264744,1.330106549401901,-0.8858120479388768,4.58,4.33,8.91,2.35,4.33,4.58,1.1,1.25,0,0.6233743339874911,-1.0217841815217856,-0.9016391611096468,-0.5611133146446553,0.37068178295328935,0.5624030416362753,-1.1561049179737128,0.7260689657409969,0.7260689657409969,1,0,1
143,1,144,6,111_propercorn_sweetnsalty.png,2.0,36_nature_valley_protein_bars.png,1.4,0,4016,78,1129,1.0,608,1754,2362,3,1,-0.6000000000000001,-0.968245836551854,0.6000000000000001,0.2645275057873658,0.4325651102553511,0.5318439509655369,5.0,3.83,8.83,3.4,5.0,3.83,2.0,1.4,1,0.5857650227363602,0.6415854163043653,1.159250349998111,-0.22612029097620662,0.851256085129295,0.04115002946114985,0.335643363282691,0.8561956115491236,0.8561956115491236,1,1,1
144,1,145,29,29_mms_peanut.png,1.1,35_mms_plain.png,2.0,1,2365,76,1450,1.0,644,1004,1648,2,2,0.8999999999999999,1.4523687548277808,0.8999999999999999,1.0998775240632583,0.2829748703975928,-0.5074766770056829,5.0,4.83,9.83,3.1,4.83,5.0,2.0,1.1,1,1.0558814133754963,0.16633695978260807,1.159250349998111,-0.896106338313104,0.729319321890607,0.8543047284543455,-0.4102307773455109,0.9071147338218688,0.9071147338218688,0,0,1
145,1,146,53,107_graze_scream.png,1.55,54_milkyway_magic_stars.png,1.55,1,1583,90,587,1.0,124,540,664,1,2,0.0,1.0451085762029443e-17,0.0,-1.4061725307644208,1.330106549401901,-0.9997533160568604,2.83,5.0,7.83,3.1,5.0,2.83,1.55,1.55,1,0.11564863209722397,0.16633695978260807,0.12880559444423215,0.10887273269224258,0.851256085129295,-0.6538539867723507,-1.1561049179737128,0.17161630099332653,0.17161630099332653,1,0,1
146,1,147,58,34_hobnob_flapjack.png,1.55,5_caramello.png,1.25,0,5406,62,1761,1.0,-996,3098,2102,4,1,-0.30000000000000004,-0.4841229182759271,0.30000000000000004,-0.5708225124885274,-0.7641568086067158,1.4068625293301618,1.08,2.83,3.91,2.8,1.08,2.83,1.55,1.25,1,-1.72720761920819,-0.30891149673914986,0.12880559444423215,-0.5611133146446553,-1.9604622201392756,-0.6538539867723507,1.0815175039108929,-1.4125341697143028,1.4125341697143028,0,1,0
147,1,148,27,39_milkyway.png,1.25,10_hula_hoops_bbq_beef.png,2.0,1,2418,80,1029,1.0,123,832,955,1,2,0.75,1.2103072956898175,0.75,0.6822025149253121,0.5821553501131095,-0.4741126592694778,4.08,5.0,9.08,3.25,5.0,4.08,2.0,1.25,1,0.7032941203961443,0.4039611880434867,1.159250349998111,-0.5611133146446553,0.851256085129295,0.214901033519525,-1.1561049179737128,0.1702018809301947,0.1702018809301947,1,0,1
148,1,149,60,110_bombay_mix.png,1.4,57_food_doctor_mild_korma_crisps.png,1.25,0,5198,54,1864,1.0,-1433,3091,1658,5,1,-0.1499999999999999,-0.24206145913796334,0.1499999999999999,-0.9884975216264744,-1.3625177680377492,1.275924497459772,3.58,0.08,3.66,2.65,3.58,0.08,1.4,1.25,1,-1.844736716867974,-0.5465357250000284,-0.2146759907403945,-0.5611133146446553,-0.16727452545268723,-2.5651150314144773,1.8273916445390948,-2.0306357373029047,2.0306357373029047,0,1,0
149,1,150,35,40_nestle_rolo.png,1.1,41_jelly_babies_berry_mix.png,1.85,1,4101,88,1372,1.0,831,1622,2453,2,2,0.75,1.2103072956898175,0.75,0.6822025149253121,1.1805163095441429,0.5853522812971866,4.08,4.58,8.66,2.95,4.58,4.08,1.85,1.1,1,0.5058452363277071,-0.07128726847827055,0.8157687648134849,-0.896106338313104,0.5500005524219482,0.214901033519525,-0.4102307773455109,1.1716112856275176,1.1716112856275176,1,0,1
150,1,151,21,42_dairy_milk_fruit_and_nut.png,1.55,10_hula_hoops_bbq_beef.png,2.0,1,3167,70,2147,1.0,429,1268,1697,3,2,0.45,0.7261843774138904,0.45,-0.15314750335058114,-0.16579584917568232,-0.002609842582352618,4.33,5.0,9.33,3.55,5.0,4.33,2.0,1.55,1,0.8208232180559283,0.8792096445652439,1.159250349998111,0.10887273269224258,0.851256085129295,0.3886520375779001,0.335643363282691,0.6030144202485291,0.6030144202485291,0,1,1
151,1,152,10,14_maltesers.png,1.85,48_mentos_mint.png,0.95,0,1675,86,1834,1.0,1001,763,1764,2,1,-0.9000000000000001,-1.4523687548277813,0.9000000000000001,1.099877524063259,1.030926069686385,-0.9418384173449572,5.0,3.58,8.58,2.8,5.0,3.58,1.85,0.95,1,0.46823592507657613,-0.30891149673914986,0.8157687648134849,-1.2310993619815531,0.851256085129295,-0.13260097459722528,-0.4102307773455109,1.4120626963599257,1.4120626963599257,1,0,1
152,1,153,25,52_discos_salt_vinegar.png,1.7,45_gb_ginger.png,2.0,1,1655,96,792,1.0,206,518,724,1,2,0.30000000000000004,0.4841229182759271,0.30000000000000004,-0.5708225124885274,1.7788772689751764,-0.9544286127171099,4.58,4.83,9.41,3.7,4.83,4.58,2.0,1.7,1,0.8584325293070593,1.1168338728261231,1.159250349998111,0.44386575636069125,0.729319321890607,0.5624030416362753,-1.1561049179737128,0.28759874617013514,0.28759874617013514,1,0,1
153,1,154,36,23_kp_grazing_mix.png,1.55,58_walnut_whip.png,1.1,0,1870,86,1446,1.0,292,1128,1420,1,1,-0.45,-0.7261843774138904,0.45,-0.15314750335058114,1.030926069686385,-0.8190840124664666,2.58,0.33,2.91,2.6500000000000004,2.58,0.33,1.55,1.1,1,-2.197324009847326,-0.5465357250000278,0.12880559444423215,-0.896106338313104,-0.8845496033273226,-2.391364027356102,-1.1561049179737128,0.4092388715994709,0.4092388715994709,1,0,1
154,1,155,7,62_cadbury_wispa.png,1.55,30_starburst_original.png,1.1,0,2637,90,2037,1.0,552,1322,1874,3,1,-0.45,-0.7261843774138904,0.45,-0.15314750335058114,1.330106549401901,-0.3362500199444038,3.33,4.83,8.16,2.6500000000000004,3.33,4.83,1.55,1.1,1,0.27078704100813894,-0.5465357250000278,0.12880559444423215,-0.896106338313104,-0.34659329492134605,0.7361540456946504,0.335643363282691,0.7769880880137421,0.7769880880137421,1,1,1
155,1,156,4,111_propercorn_sweetnsalty.png,2.0,44_walkers_french_fries.png,2.0,1,3613,68,1735,1.0,1016,1596,2612,4,2,0.0,1.0451085762029443e-17,0.0,-1.4061725307644208,-0.3153860890334407,0.2781515142166565,5.0,4.33,9.33,4.0,4.33,5.0,2.0,2.0,1,0.8208232180559283,1.5920823293478805,1.159250349998111,1.113851803697589,0.37068178295328935,0.8543047284543455,1.0815175039108929,1.433278997306903,1.433278997306903,0,1,1
156,1,157,2,109_kp_roast.png,2.3,107_graze_scream.png,1.55,0,1854,84,1447,1.0,115,789,904,2,1,-0.7499999999999998,-1.210307295689817,0.7499999999999998,0.6822025149253115,0.8813358298286262,-0.8291561687641889,5.0,2.83,7.83,3.85,5.0,2.83,2.3,1.55,1,0.11564863209722397,1.3544581010870018,1.8462135203673633,0.10887273269224258,0.851256085129295,-0.6538539867723507,-0.4102307773455109,0.1588865204251402,0.1588865204251402,1,0,1
157,1,158,55,45_gb_ginger.png,2.0,23_kp_grazing_mix.png,1.55,0,1999,68,2203,1.0,-254,916,662,2,1,-0.45,-0.7261843774138904,0.45,-0.15314750335058114,-0.3153860890334407,-0.7378772523160805,4.83,2.58,7.41,3.55,4.83,2.58,2.0,1.55,1,-0.08180025197121323,0.8792096445652439,1.159250349998111,0.10887273269224258,0.729319321890607,-0.8276049908307258,-0.4102307773455109,-0.36303448287049844,0.36303448287049844,0,0,0
158,1,159,54,11_lindt_orange.png,2.0,2_maynards_winegums.png,1.1,0,1979,82,1999,1.0,747,1060,1807,1,1,-0.8999999999999999,-1.4523687548277808,0.8999999999999999,1.0998775240632583,0.7317455899708678,-0.7504674476882334,4.75,4.08,8.83,3.1,4.75,4.08,2.0,1.1,1,0.5857650227363602,0.16633695978260807,1.159250349998111,-0.896106338313104,0.6719373156606362,0.214901033519525,-1.1561049179737128,1.0528000003244455,1.0528000003244455,1,0,1
159,1,160,11,32_snickers.png,2.3,18_galaxy_bar.png,1.1,0,1987,90,3510,1.0,949,934,1883,2,1,-1.1999999999999995,-1.936491673103708,1.1999999999999995,1.9352275423391512,1.330106549401901,-0.7454313695393723,5.0,4.75,9.75,3.4,5.0,4.75,2.3,1.1,1,1.0182721021243655,0.6415854163043653,1.8462135203673633,-0.896106338313104,0.851256085129295,0.6805537243959703,-0.4102307773455109,1.3385128530770716,1.3385128530770716,1,0,1
160,1,161,18,55_bassetts_licorice_allsorts.png,0.35,29_mms_peanut.png,1.1,0,1573,96,1570,2.0,-537,859,322,2,1,0.7500000000000001,1.2103072956898178,0.7500000000000001,0.6822025149253125,1.7788772689751764,-1.0060484137429369,4.33,5.0,9.33,1.4500000000000002,4.33,5.0,0.35,1.1,1,0.8208232180559283,-2.447529551087058,-2.6190470870327784,-0.896106338313104,0.37068178295328935,0.8543047284543455,-0.4102307773455109,-0.7633153607368012,0.7633153607368012,1,0,0
161,1,162,24,24_twix.png,1.85,112_lindt_extra_creamy.png,1.85,1,1712,64,1959,2.0,184,556,740,1,2,0.0,1.0451085762029443e-17,0.0,-1.4061725307644208,-0.6145665687489574,-0.9185465559064744,5.0,4.08,9.08,3.7,4.08,5.0,1.85,1.85,1,0.7032941203961443,1.1168338728261231,0.8157687648134849,0.7788587800291404,0.19136301348463047,0.8543047284543455,-1.1561049179737128,0.25648150478123527,0.25648150478123527,0,0,1
162,1,163,47,34_hobnob_flapjack.png,1.55,51_smarties.png,1.7,0,2040,54,2211,2.0,-125,859,734,2,1,0.1499999999999999,0.24206145913796334,0.1499999999999999,-0.9884975216264744,-1.3625177680377492,-0.7120673518031672,1.08,5.0,6.08,3.25,1.08,5.0,1.55,1.7,1,-0.7070550515212645,0.4039611880434867,0.12880559444423215,0.44386575636069125,-1.9604622201392756,0.8543047284543455,-0.4102307773455109,-0.18057429472649467,0.18057429472649467,0,1,0
163,1,164,22,31_beef_jerky.png,2.0,15_jacobs_mini_cheddars.png,1.85,1,2372,56,1728,2.0,262,846,1108,3,2,-0.1499999999999999,-0.24206145913796334,0.1499999999999999,-0.9884975216264744,-1.212927528179991,-0.5030701086254294,4.83,4.83,9.66,3.85,4.83,4.83,1.85,2.0,1,0.9759616269668433,1.3544581010870018,0.8157687648134849,1.113851803697589,0.729319321890607,0.7361540456946504,0.335643363282691,0.36680626970551655,0.36680626970551655,0,1,1
164,1,165,45,43_mccoys_steak_crisps.png,2.0,51_smarties.png,1.7,0,4185,50,3388,2.0,-22,1808,1786,4,1,-0.30000000000000004,-0.4841229182759271,0.30000000000000004,-0.5708225124885274,-1.6616982477532658,0.6382311018602287,5.0,5.0,10.0,3.7,5.0,5.0,2.0,1.7,0,1.1358011997841495,1.1168338728261231,1.159250349998111,0.44386575636069125,0.851256085129295,0.8543047284543455,1.0815175039108929,-0.03488902822391803,0.03488902822391803,0,1,0
165,1,166,20,53_eat_natural_almond_apricot.png,1.1,25_wonderful_almonds.png,1.25,1,3429,64,3669,2.0,273,1314,1587,3,2,0.1499999999999999,0.24206145913796334,0.1499999999999999,-0.9884975216264744,-0.6145665687489574,0.16232171679285004,4.33,4.58,8.91,2.35,4.58,4.33,1.25,1.1,0,0.6233743339874911,-1.0217841815217856,-0.5581575759250207,-0.896106338313104,0.5500005524219482,0.3886520375779001,0.335643363282691,0.38236489039996646,0.38236489039996646,0,1,1
166,1,167,56,36_nature_valley_protein_bars.png,1.4,64_nestle_aero_mint.png,1.55,0,2044,80,1964,2.0,-161,875,714,2,1,0.15000000000000013,0.2420614591379637,0.15000000000000013,-0.988497521626474,0.5821553501131095,-0.7095493127287366,3.83,5.0,8.83,2.95,3.83,5.0,1.4,1.55,1,0.5857650227363602,-0.07128726847827055,-0.2146759907403945,0.10887273269224258,0.012044244015971631,0.8543047284543455,-0.4102307773455109,-0.2314934169992399,0.2314934169992399,1,0,0
167,1,168,14,31_beef_jerky.png,2.0,116_boots_caramels.png,0.95,1,2542,70,2892,2.0,20,1016,1036,4,2,-1.05,-1.6944302139657446,1.05,1.5175525332012054,-0.16579584917568232,-0.39605344796213,4.83,1.08,5.91,2.95,1.08,4.83,0.95,2.0,1,-0.7869748379299175,-0.07128726847827055,-1.2451207462942735,1.113851803697589,-1.9604622201392756,0.7361540456946504,1.0815175039108929,0.024516614427618072,0.024516614427618072,0,1,1
168,1,169,26,113_walkers_cheese.png,2.0,25_wonderful_almonds.png,1.25,1,1576,82,1612,2.0,173,530,703,1,2,-0.75,-1.2103072956898175,0.75,0.6822025149253121,0.7317455899708678,-1.0041598844371138,4.33,4.58,8.91,3.25,4.58,4.33,1.25,2.0,1,0.6233743339874911,0.4039611880434867,-0.5581575759250207,1.113851803697589,0.5500005524219482,0.3886520375779001,-1.1561049179737128,0.24092288408678533,0.24092288408678533,1,0,1
169,1,170,37,115_shapers_blueberry.png,1.1,13_fruit_pastilles.png,1.1,0,2497,76,1610,2.0,6,1006,1012,2,1,0.0,1.0451085762029443e-17,0.0,-1.4061725307644208,0.2829748703975928,-0.4243813875494739,1.33,4.33,5.66,2.2,1.33,4.33,1.1,1.1,1,-0.9045039355897017,-1.2594084097826643,-0.9016391611096468,-0.896106338313104,-1.781143450670617,0.3886520375779001,-0.4102307773455109,0.004714733543772707,0.004714733543772707,1,0,1
170,1,171,28,15_jacobs_mini_cheddars.png,1.85,13_fruit_pastilles.png,1.1,1,2511,76,1333,2.0,518,768,1286,3,2,-0.75,-1.2103072956898175,0.75,0.6822025149253121,0.2829748703975928,-0.4155682507889669,4.83,4.33,9.16,2.95,4.33,4.83,1.1,1.85,1,0.7409034316472751,-0.07128726847827055,-0.9016391611096468,0.7788587800291404,0.37068178295328935,0.7361540456946504,0.335643363282691,0.7288978058672605,0.7288978058672605,1,1,1
171,1,172,53,54_milkyway_magic_stars.png,1.55,107_graze_scream.png,1.55,1,1564,78,1576,2.0,221,504,725,1,2,0.0,1.0451085762029443e-17,0.0,-1.4061725307644208,0.4325651102553511,-1.0117140016604056,5.0,2.83,7.83,3.1,2.83,5.0,1.55,1.55,1,0.11564863209722397,0.16633695978260807,0.12880559444423215,0.10887273269224258,-0.7052308338586638,0.8543047284543455,-1.1561049179737128,0.30881504711711233,0.30881504711711233,1,0,1
172,1,173,30,33_walkers_smoky_bacon.png,1.55,56_marshmallows.png,0.95,1,1616,76,4288,2.0,1165,502,1667,1,2,-0.6000000000000001,-0.968245836551854,0.6000000000000001,0.2645275057873658,0.2829748703975928,-0.978979493692808,3.83,3.83,7.66,2.5,3.83,3.83,0.95,1.55,1,0.035728845688570834,-0.784159953260907,-1.2451207462942735,0.10887273269224258,0.012044244015971631,0.04115002946114985,-1.1561049179737128,1.6440275867135428,1.6440275867135428,1,0,1
173,1,174,25,45_gb_ginger.png,2.0,52_discos_salt_vinegar.png,1.7,1,2987,66,1358,2.0,348,1326,1674,3,2,-0.30000000000000004,-0.4841229182759271,0.30000000000000004,-0.5708225124885274,-0.4649763288911991,-0.1159216009317285,4.83,4.58,9.41,3.7,4.58,4.83,1.7,2.0,1,0.8584325293070593,1.1168338728261231,0.4722871796288583,1.113851803697589,0.5500005524219482,0.7361540456946504,0.335643363282691,0.4884463951348524,0.4884463951348524,0,1,1
174,1,175,41,59_crunchie.png,1.7,11_lindt_orange.png,2.0,0,3625,60,2051,2.0,-120,1730,1610,4,1,0.30000000000000004,0.4841229182759271,0.30000000000000004,-0.5708225124885274,-0.9137470484644742,0.2857056314399482,5.0,4.75,9.75,3.7,5.0,4.75,1.7,2.0,1,1.0182721021243655,1.1168338728261231,0.4722871796288583,1.113851803697589,0.851256085129295,0.6805537243959703,1.0815175039108929,-0.17350219441083561,0.17350219441083561,0,1,0
175,1,176,48,53_eat_natural_almond_apricot.png,1.1,44_walkers_french_fries.png,2.0,0,2226,78,1982,2.0,35,905,940,3,1,0.8999999999999999,1.4523687548277808,0.8999999999999999,1.0998775240632583,0.4325651102553511,-0.5949785348421454,4.33,4.33,8.66,3.1,4.33,4.33,1.1,2.0,1,0.5058452363277071,0.16633695978260807,-0.9016391611096468,1.113851803697589,0.37068178295328935,0.3886520375779001,0.335643363282691,0.04573291537459526,0.04573291537459526,1,1,1
176,1,177,52,38_milkybar.png,0.8,42_dairy_milk_fruit_and_nut.png,1.55,0,2179,76,2943,2.0,-64,904,840,2,1,0.75,1.2103072956898175,0.75,0.6822025149253121,0.2829748703975928,-0.6245654939667047,4.33,4.33,8.66,2.35,4.33,4.33,0.8,1.55,1,0.5058452363277071,-1.0217841815217856,-1.5886023314788997,0.10887273269224258,0.37068178295328935,0.3886520375779001,-0.4102307773455109,-0.09429467087545414,0.09429467087545414,1,0,0
177,1,178,46,104_graze_sriracha.png,0.65,112_lindt_extra_creamy.png,1.85,0,1847,88,1817,2.0,-365,923,558,2,1,1.2000000000000002,1.9364916731037085,1.2000000000000002,1.9352275423391525,1.1805163095441429,-0.8335627371444424,0.33,4.08,4.41,2.5,0.33,4.08,0.65,1.85,1,-1.492149423888622,-0.784159953260907,-1.932083916663526,0.7788587800291404,-2.498418528545252,0.214901033519525,-0.4102307773455109,-0.5200351098781296,0.5200351098781296,1,0,0
178,1,179,39,39_milkyway.png,1.25,50_nakd_rhubarb_and_custard.png,0.65,1,1569,90,1861,2.0,-274,730,456,1,2,-0.6,-0.968245836551854,0.6,0.26452750578736545,1.330106549401901,-1.0085664528173672,4.08,0.0,4.08,1.9,0.0,4.08,0.65,1.25,1,-1.6472878327995368,-1.7346568663044222,-1.932083916663526,-0.5611133146446553,-2.735119304243882,0.214901033519525,-1.1561049179737128,-0.3913228841331347,0.3913228841331347,1,0,0
179,1,180,54,2_maynards_winegums.png,1.1,11_lindt_orange.png,2.0,0,2371,64,2150,2.0,-536,1154,618,3,1,0.8999999999999999,1.4523687548277808,0.8999999999999999,1.0998775240632583,-0.6145665687489574,-0.5036996183940371,4.08,4.75,8.83,3.1,4.08,4.75,1.1,2.0,1,0.5857650227363602,0.16633695978260807,-0.9016391611096468,1.113851803697589,0.19136301348463047,0.6805537243959703,0.335643363282691,-0.7619009406736693,0.7619009406736693,0,1,0
180,1,181,50,20_crunch.png,1.1,63_kitkat.png,1.85,0,2482,84,3314,2.0,1332,994,2326,2,1,0.75,1.2103072956898175,0.75,0.6822025149253121,0.8813358298286262,-0.4338240340785886,0.83,5.0,5.83,2.95,0.83,5.0,1.1,1.85,1,-0.8245841491810485,-0.07128726847827055,-0.9016391611096468,0.7788587800291404,-2.1397809896079347,0.8543047284543455,-0.4102307773455109,1.8802357372565552,1.8802357372565552,1,0,1
181,1,182,40,27_mars.png,0.95,2_maynards_winegums.png,1.1,0,2747,76,1848,2.0,-514,1408,894,2,1,0.15000000000000013,0.2420614591379637,0.15000000000000013,-0.988497521626474,0.2829748703975928,-0.267003945397563,4.58,4.08,8.66,2.05,4.58,4.08,0.95,1.1,1,0.5058452363277071,-1.4970326380435437,-1.2451207462942735,-0.896106338313104,0.5500005524219482,0.214901033519525,-0.4102307773455109,-0.7307836992847695,0.7307836992847695,1,0,0
182,1,183,21,10_hula_hoops_bbq_beef.png,2.0,42_dairy_milk_fruit_and_nut.png,1.55,1,2918,54,2532,2.0,486,950,1436,3,2,-0.45,-0.7261843774138904,0.45,-0.15314750335058114,-1.3625177680377492,-0.15935777496565592,5.0,4.33,9.33,3.55,4.33,5.0,1.55,2.0,1,0.8208232180559283,0.8792096445652439,0.12880559444423215,1.113851803697589,0.37068178295328935,0.8543047284543455,0.335643363282691,0.6836363638470424,0.6836363638470424,0,1,1
183,1,184,43,35_mms_plain.png,2.0,103_nakd_berry.png,1.85,1,3706,40,1985,2.0,1036,1582,2618,3,2,-0.1499999999999999,-0.24206145913796334,0.1499999999999999,-0.9884975216264744,-2.409649447042058,0.33669592269716736,4.83,2.58,7.41,3.85,2.58,4.83,1.85,2.0,1,-0.08180025197121323,1.3544581010870018,0.8157687648134849,1.113851803697589,-0.8845496033273226,0.7361540456946504,0.335643363282691,1.461567398569539,1.461567398569539,0,1,1
184,1,185,29,35_mms_plain.png,2.0,29_mms_peanut.png,1.1,1,3625,52,1531,2.0,481,1236,1717,3,2,-0.8999999999999999,-1.4523687548277808,0.8999999999999999,1.0998775240632583,-1.5121080078955076,0.2857056314399482,4.83,5.0,9.83,3.1,5.0,4.83,1.1,2.0,1,1.0558814133754963,0.16633695978260807,-0.9016391611096468,1.113851803697589,0.851256085129295,0.7361540456946504,0.335643363282691,0.6765642635313834,0.6765642635313834,0,1,1
185,1,186,38,38_milkybar.png,0.8,56_marshmallows.png,0.95,0,3938,50,1407,2.0,1491,1557,3048,5,1,0.1499999999999999,0.24206145913796334,0.1499999999999999,-0.9884975216264744,-1.6616982477532658,0.4827421890141407,4.33,3.83,8.16,1.75,4.33,3.83,0.8,0.95,1,0.27078704100813894,-1.9722810945653009,-1.5886023314788997,-1.2310993619815531,0.37068178295328935,0.04115002946114985,1.8273916445390948,2.1051285272945135,2.1051285272945135,0,1,1
186,1,187,16,104_graze_sriracha.png,0.65,116_boots_caramels.png,0.95,0,2329,52,3320,2.0,1105,869,1974,1,1,0.29999999999999993,0.4841229182759269,0.29999999999999993,-0.5708225124885278,-1.5121080078955076,-0.5301390286755581,0.33,1.08,1.41,1.6,0.33,1.08,0.65,0.95,1,-2.9024985958060308,-2.2099053228261796,-1.932083916663526,-1.2310993619815531,-2.498418528545252,-1.8701110151809766,-1.1561049179737128,1.559162382925634,1.559162382925634,0,0,1
187,1,188,51,5_caramello.png,1.25,59_crunchie.png,1.7,0,2028,78,1503,2.0,-8,796,788,2,1,0.45,0.7261843774138904,0.45,-0.15314750335058114,0.4325651102553511,-0.7196214690264588,2.83,5.0,7.83,2.95,2.83,5.0,1.25,1.7,1,0.11564863209722397,-0.07128726847827055,-0.5581575759250207,0.44386575636069125,-0.7052308338586638,0.8543047284543455,-0.4102307773455109,-0.015087147340072661,0.015087147340072661,1,0,1
188,1,189,32,24_twix.png,1.85,55_bassetts_licorice_allsorts.png,0.35,1,1665,100,2512,2.0,996,446,1442,1,2,-1.5,-2.4206145913796346,1.5,2.770577560615045,2.0780577486906933,-0.9481335150310336,5.0,4.33,9.33,2.2,4.33,5.0,0.35,1.85,1,0.8208232180559283,-1.2594084097826643,-2.6190470870327784,0.7788587800291404,0.37068178295328935,0.8543047284543455,-1.1561049179737128,1.4049905960442666,1.4049905960442666,1,0,1
189,1,190,31,109_kp_roast.png,2.3,27_mars.png,0.95,1,1580,74,4224,2.0,209,496,705,1,2,-1.35,-2.178553132241672,1.35,2.352902551477098,0.1333846305398344,-1.0016418453626832,5.0,4.58,9.58,3.25,4.58,5.0,0.95,2.3,1,0.9383523157157123,0.4039611880434867,-1.2451207462942735,1.7838378510344866,0.5500005524219482,0.8543047284543455,-1.1561049179737128,0.29184200635953056,0.29184200635953056,1,0,1
190,1,191,44,26_yorkie.png,1.7,102_propercorn_worcester.png,2.3,0,4189,58,3312,2.0,197,1767,1964,3,1,0.5999999999999999,0.9682458365518538,0.5999999999999999,0.2645275057873652,-1.0633372883222325,0.6407491409346593,3.58,4.83,8.41,4.0,3.58,4.83,1.7,2.3,1,0.388316138667923,1.5920823293478805,0.4722871796288583,1.7838378510344866,-0.16727452545268723,0.7361540456946504,0.335643363282691,0.2748689656019488,0.2748689656019488,0,1,1
191,1,192,42,19_pistachios.png,1.7,63_kitkat.png,1.85,0,2626,70,3155,2.0,330,1046,1376,4,2,0.15000000000000013,0.2420614591379637,0.15000000000000013,-0.988497521626474,-0.16579584917568232,-0.3431746273990879,4.33,5.0,9.33,3.55,4.33,5.0,1.7,1.85,1,0.8208232180559283,0.8792096445652439,0.4722871796288583,0.7788587800291404,0.37068178295328935,0.8543047284543455,1.0815175039108929,0.4629868339984798,0.4629868339984798,1,1,1
192,1,193,15,108_chilli_nuts.png,1.7,57_food_doctor_mild_korma_crisps.png,1.25,1,3783,58,2508,2.0,328,1526,1854,4,2,-0.45,-0.7261843774138904,0.45,-0.15314750335058114,-1.0633372883222325,0.3851681748799559,3.33,0.08,3.41,2.95,0.08,3.33,1.25,1.7,1,-1.962265814527758,-0.07128726847827055,-0.5581575759250207,0.44386575636069125,-2.677737298013911,-0.30635197865560043,1.0815175039108929,0.4601579938722162,0.4601579938722162,0,1,1
193,1,194,55,23_kp_grazing_mix.png,1.55,45_gb_ginger.png,2.0,0,2920,70,1445,2.0,192,1372,1564,3,2,0.45,0.7261843774138904,0.45,-0.15314750335058114,-0.16579584917568232,-0.15809875542844062,2.58,4.83,7.41,3.55,2.58,4.83,1.55,2.0,1,-0.08180025197121323,0.8792096445652439,0.12880559444423215,1.113851803697589,-0.8845496033273226,0.7361540456946504,0.335643363282691,0.26779686528628976,0.26779686528628976,0,1,1
194,1,195,19,117_yogurt_raisins.png,1.25,18_galaxy_bar.png,1.1,0,4843,70,1909,2.0,337,2248,2585,3,2,-0.1499999999999999,-0.24206145913796334,0.1499999999999999,-0.9884975216264744,-0.16579584917568232,1.0524485296040582,3.08,4.75,7.83,2.35,3.08,4.75,1.25,1.1,0,0.11564863209722397,-1.0217841815217856,-0.5581575759250207,-0.896106338313104,-0.5259120643900049,0.6805537243959703,0.335643363282691,0.4728877744404025,0.4728877744404025,0,1,1
195,1,196,49,60_caramel_rice_crisps.png,1.4,52_discos_salt_vinegar.png,1.7,0,5275,66,2347,2.0,927,2420,3347,7,1,0.30000000000000004,0.4841229182759271,0.30000000000000004,-0.5708225124885274,-0.4649763288911991,1.3243967496425604,3.08,4.58,7.66,3.1,3.08,4.58,1.4,1.7,1,0.035728845688570834,0.16633695978260807,-0.2146759907403945,0.44386575636069125,-0.5259120643900049,0.5624030416362753,3.3191399257954983,1.3073956116881715,1.3073956116881715,0,1,1
196,1,197,17,20_crunch.png,1.1,60_caramel_rice_crisps.png,1.4,0,5630,62,2406,2.0,-92,2514,2422,5,2,0.2999999999999998,0.4841229182759267,0.2999999999999998,-0.5708225124885281,-0.7641568086067158,1.547872717498274,0.83,3.08,3.91,2.5,0.83,3.08,1.1,1.4,1,-1.72720761920819,-0.784159953260907,-0.9016391611096468,-0.22612029097620662,-2.1397809896079347,-0.48010298271397556,1.8273916445390948,-0.13389843264314488,0.13389843264314488,0,1,0
197,1,198,27,10_hula_hoops_bbq_beef.png,2.0,39_milkyway.png,1.25,1,1871,80,2333,2.0,-268,860,592,2,1,-0.75,-1.2103072956898175,0.75,0.6822025149253121,0.5821553501131095,-0.8184545026978589,5.0,4.08,9.08,3.25,4.08,5.0,1.25,2.0,1,0.7032941203961443,0.4039611880434867,-0.5581575759250207,1.113851803697589,0.19136301348463047,0.8543047284543455,-0.4102307773455109,-0.3828363637543438,0.3828363637543438,1,0,0
198,1,199,13,103_nakd_berry.png,1.85,117_yogurt_raisins.png,1.25,1,4173,74,2035,2.0,-68,1918,1850,5,2,-0.6000000000000001,-0.968245836551854,0.6000000000000001,0.2645275057873658,0.1333846305398344,0.630676984636937,2.58,3.08,5.66,3.1,3.08,2.58,1.25,1.85,1,-0.9045039355897017,0.16633695978260807,-0.5581575759250207,0.7788587800291404,-0.5259120643900049,-0.8276049908307258,1.8273916445390948,-0.09995235112798138,0.09995235112798138,1,1,0
199,1,200,23,33_walkers_smoky_bacon.png,1.55,14_maltesers.png,1.85,0,2828,74,1462,2.0,-19,1166,1147,3,2,0.30000000000000004,0.4841229182759271,0.30000000000000004,-0.5708225124885274,0.1333846305398344,-0.21601365414034385,3.83,5.0,8.83,3.4000000000000004,3.83,5.0,1.55,1.85,1,0.5857650227363602,0.6415854163043659,0.12880559444423215,0.7788587800291404,0.012044244015971631,0.8543047284543455,0.335643363282691,-0.030645768034522597,0.030645768034522597,1,1,0
200,1,201,28,15_jacobs_mini_cheddars.png,1.85,13_fruit_pastilles.png,1.1,0,2166,80,1946,1.0,1071,938,2009,3,1,-0.75,-1.2103072956898175,0.75,0.6822025149253121,0.5821553501131095,-0.632749120958604,4.83,4.33,9.16,2.95,4.83,4.33,1.85,1.1,1,0.7409034316472751,-0.07128726847827055,0.8157687648134849,-0.896106338313104,0.729319321890607,0.3886520375779001,0.335643363282691,1.5110721007791523,1.5110721007791523,1,1,1
201,1,202,21,10_hula_hoops_bbq_beef.png,2.0,42_dairy_milk_fruit_and_nut.png,1.55,0,2263,76,2455,1.0,131,845,976,3,1,-0.45,-0.7261843774138904,0.45,-0.15314750335058114,0.2829748703975928,-0.5716866734036625,5.0,4.33,9.33,3.55,5.0,4.33,2.0,1.55,1,0.8208232180559283,0.8792096445652439,1.159250349998111,0.10887273269224258,0.851256085129295,0.3886520375779001,0.335643363282691,0.18151724143524922,0.18151724143524922,0,1,1
202,1,203,52,38_milkybar.png,0.8,42_dairy_milk_fruit_and_nut.png,1.55,1,1491,94,1404,1.0,1251,410,1661,1,2,0.75,1.2103072956898175,0.75,0.6822025149253121,1.6292870291174182,-1.0576682147687635,4.33,4.33,8.66,2.35,4.33,4.33,1.55,0.8,1,0.5058452363277071,-1.0217841815217856,0.12880559444423215,-1.566092385650002,0.37068178295328935,0.3886520375779001,-1.1561049179737128,1.7656677121428785,1.7656677121428785,1,0,1
203,1,204,20,53_eat_natural_almond_apricot.png,1.1,25_wonderful_almonds.png,1.25,0,1697,88,919,1.0,1035,753,1788,2,1,0.1499999999999999,0.24206145913796334,0.1499999999999999,-0.9884975216264744,1.1805163095441429,-0.9279892024355888,4.33,4.58,8.91,2.35,4.33,4.58,1.1,1.25,0,0.6233743339874911,-1.0217841815217856,-0.9016391611096468,-0.5611133146446553,0.37068178295328935,0.5624030416362753,-0.4102307773455109,1.4601529785064071,1.4601529785064071,1,0,1
204,1,205,47,34_hobnob_flapjack.png,1.55,51_smarties.png,1.7,1,2250,88,1017,1.0,56,862,918,3,2,0.1499999999999999,0.24206145913796334,0.1499999999999999,-0.9884975216264744,1.1805163095441429,-0.579870300395562,1.08,5.0,6.08,3.25,5.0,1.08,1.7,1.55,1,-0.7070550515212645,0.4039611880434867,0.4722871796288583,0.10887273269224258,0.851256085129295,-1.8701110151809766,0.335643363282691,0.07543573670036331,0.07543573670036331,1,1,1
205,1,206,15,108_chilli_nuts.png,1.7,57_food_doctor_mild_korma_crisps.png,1.25,0,2017,70,1626,1.0,-568,1222,654,2,1,-0.45,-0.7261843774138904,0.45,-0.15314750335058114,-0.16579584917568232,-0.7265460764811429,3.33,0.08,3.41,2.95,3.33,0.08,1.7,1.25,1,-1.962265814527758,-0.07128726847827055,0.4722871796288583,-0.5611133146446553,-0.34659329492134605,-2.5651150314144773,-0.4102307773455109,-0.8071623826938873,0.8071623826938873,0,0,0
206,1,207,42,19_pistachios.png,1.7,63_kitkat.png,1.85,1,2098,82,2107,1.0,62,810,872,3,2,0.15000000000000013,0.2420614591379637,0.15000000000000013,-0.988497521626474,0.7317455899708678,-0.6755557852239238,4.33,5.0,9.33,3.55,5.0,4.33,1.85,1.7,1,0.8208232180559283,0.8792096445652439,0.8157687648134849,0.44386575636069125,0.851256085129295,0.3886520375779001,0.335643363282691,0.08392225707915418,0.08392225707915418,1,1,1
207,1,208,26,113_walkers_cheese.png,2.0,25_wonderful_almonds.png,1.25,0,1744,90,2094,1.0,-241,783,542,2,1,-0.75,-1.2103072956898175,0.75,0.6822025149253121,1.330106549401901,-0.8984022433110297,4.33,4.58,8.91,3.25,4.33,4.58,2.0,1.25,1,0.6233743339874911,0.4039611880434867,1.159250349998111,-0.5611133146446553,0.37068178295328935,0.5624030416362753,-0.4102307773455109,-0.34464702204978487,0.34464702204978487,1,0,0
208,1,209,24,24_twix.png,1.85,112_lindt_extra_creamy.png,1.85,0,2002,88,1892,1.0,866,873,1739,2,1,0.0,1.0451085762029443e-17,0.0,-1.4061725307644208,1.1805163095441429,-0.7359887230102576,5.0,4.08,9.08,3.7,5.0,4.08,1.85,1.85,1,0.7032941203961443,1.1168338728261231,0.8157687648134849,0.7788587800291404,0.851256085129295,0.214901033519525,-0.4102307773455109,1.2211159878371312,1.2211159878371312,1,0,1
209,1,210,29,35_mms_plain.png,2.0,29_mms_peanut.png,1.1,0,2099,72,1688,1.0,-121,1124,1003,2,1,-0.8999999999999999,-1.4523687548277808,0.8999999999999999,1.0998775240632583,-0.016205609317923964,-0.6749262754553161,4.83,5.0,9.83,3.1,4.83,5.0,2.0,1.1,1,1.0558814133754963,0.16633695978260807,1.159250349998111,-0.896106338313104,0.729319321890607,0.8543047284543455,-0.4102307773455109,-0.17491661447396742,0.17491661447396742,0,0,0
210,1,211,49,60_caramel_rice_crisps.png,1.4,52_discos_salt_vinegar.png,1.7,0,4340,56,1578,1.0,-270,2030,1760,3,1,0.30000000000000004,0.4841229182759271,0.30000000000000004,-0.5708225124885274,-1.212927528179991,0.7358051159944136,3.08,4.58,7.66,3.1,3.08,4.58,1.4,1.7,0,0.035728845688570834,0.16633695978260807,-0.2146759907403945,0.44386575636069125,-0.5259120643900049,0.5624030416362753,0.335643363282691,-0.38566520388060743,0.38566520388060743,0,1,0
211,1,212,23,33_walkers_smoky_bacon.png,1.55,14_maltesers.png,1.85,1,2085,84,1389,1.0,888,514,1402,1,2,0.30000000000000004,0.4841229182759271,0.30000000000000004,-0.5708225124885274,0.8813358298286262,-0.6837394122158231,3.83,5.0,8.83,3.4000000000000004,5.0,3.83,1.85,1.55,1,0.5857650227363602,0.6415854163043659,0.8157687648134849,0.10887273269224258,0.851256085129295,0.04115002946114985,-1.1561049179737128,1.252233229226031,1.252233229226031,1,0,1
212,1,213,55,23_kp_grazing_mix.png,1.55,45_gb_ginger.png,2.0,1,2755,88,1999,1.0,228,982,1210,3,2,0.45,0.7261843774138904,0.45,-0.15314750335058114,1.1805163095441429,-0.26196786724870186,2.58,4.83,7.41,3.55,4.83,2.58,2.0,1.55,1,-0.08180025197121323,0.8792096445652439,1.159250349998111,0.10887273269224258,0.729319321890607,-0.8276049908307258,0.335643363282691,0.31871598755903496,0.31871598755903496,1,1,1
213,1,214,22,31_beef_jerky.png,2.0,15_jacobs_mini_cheddars.png,1.85,0,2265,68,978,1.0,6,926,932,2,1,-0.1499999999999999,-0.24206145913796334,0.1499999999999999,-0.9884975216264744,-0.3153860890334407,-0.5704276538664473,4.83,4.83,9.66,3.85,4.83,4.83,2.0,1.85,1,0.9759616269668433,1.3544581010870018,1.159250349998111,0.7788587800291404,0.729319321890607,0.7361540456946504,-0.4102307773455109,0.004714733543772707,0.004714733543772707,0,0,0
214,1,215,51,5_caramello.png,1.25,59_crunchie.png,1.7,1,1866,88,1626,1.0,383,540,923,1,2,0.45,0.7261843774138904,0.45,-0.15314750335058114,1.1805163095441429,-0.8216020515408972,2.83,5.0,7.83,2.95,5.0,2.83,1.7,1.25,1,0.11564863209722397,-0.07128726847827055,0.4722871796288583,-0.5611133146446553,0.851256085129295,-0.6538539867723507,-1.1561049179737128,0.5379510973444658,0.5379510973444658,1,0,1
215,1,216,32,24_twix.png,1.85,55_bassetts_licorice_allsorts.png,0.35,0,2166,100,1842,1.0,286,1301,1587,3,1,-1.5,-2.4206145913796346,1.5,2.770577560615045,2.0780577486906933,-0.632749120958604,5.0,4.33,9.33,2.2,5.0,4.33,1.85,0.35,1,0.8208232180559283,-1.2594084097826643,0.8157687648134849,-2.5710714566553485,0.851256085129295,0.3886520375779001,0.335643363282691,0.40075235122068004,0.40075235122068004,1,1,1
216,1,217,19,117_yogurt_raisins.png,1.25,18_galaxy_bar.png,1.1,1,4828,76,1901,1.0,-302,2030,1728,5,2,-0.1499999999999999,-0.24206145913796334,0.1499999999999999,-0.9884975216264744,0.2829748703975928,1.0430058830749436,3.08,4.75,7.83,2.35,4.75,3.08,1.1,1.25,0,0.11564863209722397,-1.0217841815217856,-0.9016391611096468,-0.5611133146446553,0.6719373156606362,-0.48010298271397556,1.8273916445390948,-0.4309266459008254,0.4309266459008254,0,1,0
217,1,218,14,31_beef_jerky.png,2.0,116_boots_caramels.png,0.95,0,2376,66,1493,1.0,-112,978,866,1,1,-1.05,-1.6944302139657446,1.05,1.5175525332012054,-0.4649763288911991,-0.5005520695509988,4.83,1.08,5.91,2.95,4.83,1.08,2.0,0.95,1,-0.7869748379299175,-0.07128726847827055,1.159250349998111,-1.2310993619815531,0.729319321890607,-1.8701110151809766,-1.1561049179737128,-0.16218683390578112,0.16218683390578112,0,0,0
218,1,219,43,35_mms_plain.png,2.0,103_nakd_berry.png,1.85,0,2106,82,2712,1.0,-436,1064,628,2,1,-0.1499999999999999,-0.24206145913796334,0.1499999999999999,-0.9884975216264744,0.7317455899708678,-0.6705197070750627,4.83,2.58,7.41,3.85,4.83,2.58,2.0,1.85,1,-0.08180025197121323,1.3544581010870018,1.159250349998111,0.7788587800291404,0.729319321890607,-0.8276049908307258,-0.4102307773455109,-0.6204589343604883,0.6204589343604883,1,0,0
219,1,220,13,103_nakd_berry.png,1.85,117_yogurt_raisins.png,1.25,0,2328,70,2509,1.0,-390,1231,841,2,1,-0.6000000000000001,-0.968245836551854,0.6000000000000001,0.2645275057873658,-0.16579584917568232,-0.5307685384441657,2.58,3.08,5.66,3.1,2.58,3.08,1.85,1.25,1,-0.9045039355897017,0.16633695978260807,0.8157687648134849,-0.5611133146446553,-0.8845496033273226,-0.48010298271397556,-0.4102307773455109,-0.5553956114564249,0.5553956114564249,0,0,0
220,1,221,45,43_mccoys_steak_crisps.png,2.0,51_smarties.png,1.7,0,4574,62,2369,1.0,-347,2107,1760,6,1,-0.30000000000000004,-0.4841229182759271,0.30000000000000004,-0.5708225124885274,-0.7641568086067158,0.8831104018486021,5.0,5.0,10.0,3.7,5.0,5.0,2.0,1.7,1,1.1358011997841495,1.1168338728261231,1.159250349998111,0.44386575636069125,0.851256085129295,0.8543047284543455,2.5732657851672966,-0.49457554874175697,0.49457554874175697,0,1,0
221,1,222,17,20_crunch.png,1.1,60_caramel_rice_crisps.png,1.4,1,1708,78,1915,1.0,235,640,875,2,2,0.2999999999999998,0.4841229182759267,0.2999999999999998,-0.5708225124885281,0.4325651102553511,-0.9210645949809048,0.83,3.08,3.91,2.5,3.08,0.83,1.4,1.1,1,-1.72720761920819,-0.784159953260907,-0.2146759907403945,-0.896106338313104,-0.5259120643900049,-2.0438620192393517,-0.4102307773455109,0.32861692800095765,0.32861692800095765,1,0,1
222,1,223,50,20_crunch.png,1.1,63_kitkat.png,1.85,1,1739,92,1985,1.0,315,526,841,1,2,0.75,1.2103072956898175,0.75,0.6822025149253121,1.4796967892596598,-0.901549792154068,0.83,5.0,5.83,2.95,5.0,0.83,1.85,1.1,1,-0.8245841491810485,-0.07128726847827055,0.8157687648134849,-0.896106338313104,0.851256085129295,-2.0438620192393517,-1.1561049179737128,0.4417705330515026,0.4417705330515026,1,0,1
223,1,224,18,55_bassetts_licorice_allsorts.png,0.35,29_mms_peanut.png,1.1,1,1466,82,2474,1.0,865,604,1469,1,2,0.7500000000000001,1.2103072956898178,0.7500000000000001,0.6822025149253125,0.7317455899708678,-1.0734059589839546,4.33,5.0,9.33,1.4500000000000002,5.0,4.33,1.1,0.35,1,0.8208232180559283,-2.447529551087058,-0.9016391611096468,-2.5710714566553485,0.851256085129295,0.3886520375779001,-1.1561049179737128,1.2197015677739993,1.2197015677739993,1,0,1
224,1,225,44,26_yorkie.png,1.7,102_propercorn_worcester.png,2.3,0,4432,70,2451,1.0,-952,2204,1252,4,1,0.5999999999999999,0.9682458365518538,0.5999999999999999,0.2645275057873652,-0.16579584917568232,0.7937200147063167,3.58,4.83,8.41,4.0,3.58,4.83,1.7,2.3,0,0.388316138667923,1.5920823293478805,0.4722871796288583,1.7838378510344866,-0.16727452545268723,0.7361540456946504,1.0815175039108929,-1.3502996869365032,1.3502996869365032,0,1,0
225,1,226,54,2_maynards_winegums.png,1.1,11_lindt_orange.png,2.0,1,1759,92,1596,1.0,599,610,1209,2,2,0.8999999999999999,1.4523687548277808,0.8999999999999999,1.0998775240632583,1.4796967892596598,-0.8889595967819149,4.08,4.75,8.83,3.1,4.75,4.08,2.0,1.1,1,0.5857650227363602,0.16633695978260807,1.159250349998111,-0.896106338313104,0.6719373156606362,0.214901033519525,-0.4102307773455109,0.8434658309809373,0.8434658309809373,1,0,1
226,1,227,48,53_eat_natural_almond_apricot.png,1.1,44_walkers_french_fries.png,2.0,1,1533,82,2003,1.0,1533,448,1981,1,2,0.8999999999999999,1.4523687548277808,0.8999999999999999,1.0998775240632583,0.7317455899708678,-1.0312288044872424,4.33,4.33,8.66,3.1,4.33,4.33,2.0,1.1,1,0.5058452363277071,0.16633695978260807,1.159250349998111,-0.896106338313104,0.37068178295328935,0.3886520375779001,-1.1561049179737128,2.1645341699460494,2.1645341699460494,1,0,1
227,1,228,39,39_milkyway.png,1.25,50_nakd_rhubarb_and_custard.png,0.65,0,1556,100,1472,1.0,51,581,632,2,1,-0.6,-0.968245836551854,0.6,0.26452750578736545,2.0780577486906933,-1.0167500798092668,4.08,0.0,4.08,1.9,4.08,0.0,1.25,0.65,1,-1.6472878327995368,-1.7346568663044222,-0.5581575759250207,-1.9010854093184508,0.19136301348463047,-2.620715352713157,-0.4102307773455109,0.06836363638470425,0.06836363638470425,1,0,0
228,1,229,53,54_milkyway_magic_stars.png,1.55,107_graze_scream.png,1.55,0,1545,84,1487,1.0,-113,613,500,2,1,0.0,1.0451085762029443e-17,0.0,-1.4061725307644208,0.8813358298286262,-1.0236746872639508,5.0,2.83,7.83,3.1,5.0,2.83,1.55,1.55,1,0.11564863209722397,0.16633695978260807,0.12880559444423215,0.10887273269224258,0.851256085129295,-0.6538539867723507,-0.4102307773455109,-0.16360125396891292,0.16360125396891292,1,0,0
229,1,230,41,59_crunchie.png,1.7,11_lindt_orange.png,2.0,1,1291,80,1698,1.0,799,456,1255,2,2,0.30000000000000004,0.4841229182759271,0.30000000000000004,-0.5708225124885274,0.5821553501131095,-1.1835701684902924,5.0,4.75,9.75,3.7,4.75,5.0,2.0,1.7,1,1.0182721021243655,1.1168338728261231,1.159250349998111,0.44386575636069125,0.6719373156606362,0.8543047284543455,-0.4102307773455109,1.1263498436072996,1.1263498436072996,1,0,1
230,1,231,56,36_nature_valley_protein_bars.png,1.4,64_nestle_aero_mint.png,1.55,1,1544,94,1670,1.0,756,466,1222,1,2,0.15000000000000013,0.2420614591379637,0.15000000000000013,-0.988497521626474,1.6292870291174182,-1.0243041970325584,3.83,5.0,8.83,2.95,5.0,3.83,1.55,1.4,1,0.5857650227363602,-0.07128726847827055,0.12880559444423215,-0.22612029097620662,0.851256085129295,0.04115002946114985,-1.1561049179737128,1.0655297808926318,1.0655297808926318,1,0,1
