Unnamed: 0,Part,TrialN,PairID,LItem,LValue,RItem,RValue,ChosenITM,ChoiceRT,Conf,ConfRT,BlockCond,tDDT,lIA_DT,rIA_DT,tGSF,lastFixat,DV,zDV,absDV,zAbsDV,zConf,zChoiceRT,DFam,LFam,RFam,TotFam,TotVal,FamCh,FamUnCh,ValCh,ValUnCh,Correct,zDFam,zTotFam,zTotVal,zValCh,zValUnCh,zFamCh,zFamUnCh,zGSF,zDDT,absDDT,abszDFam,ConfSplit,GSFMedSplit,DDTMedSplit
0,1,1,14,116_boots_caramels.png,0.95,31_beef_jerky.png,2.0,1,3327,72,2427,2.0,-1246,1874,628,3,1,1.05,1.6944302139657446,1.05,1.5175525332012054,-0.016205609317923964,0.0981117203948704,3.75,1.08,4.83,5.91,2.95,4.83,1.08,2.0,0.95,0,2.0030224226854085,-0.7869748379299175,-0.07128726847827055,1.1592503499981108,-1.2310993619815531,0.729319321890607,-1.8701110151809768,0.3580227314427213,-1.8017573935302331,1.8017573935302331,2.0030224226854085,1,1,0
1,1,2,44,102_propercorn_worcester.png,2.3,26_yorkie.png,1.7,1,3424,68,2443,2.0,564,1206,1770,3,2,-0.5999999999999999,-0.9682458365518538,0.5999999999999999,0.2645275057873652,-0.3153860890334407,0.15917416794981182,-1.25,4.83,3.58,8.41,4.0,3.58,4.83,1.7,2.3,1,-0.6676741408951362,0.38831613866792297,1.5920823293478803,0.4722871796288583,1.7838378510344866,-0.16727452545268726,0.7361540456946504,0.3580227314427213,1.1454034959819643,1.1454034959819643,0.6676741408951362,0,1,1
2,1,3,51,59_crunchie.png,1.7,5_caramello.png,1.25,1,3691,68,3753,2.0,1071,1020,2091,1,2,-0.45,-0.7261843774138904,0.45,-0.15314750335058114,-0.3153860890334407,0.3272532761680527,-2.17,5.0,2.83,7.83,2.95,2.83,5.0,1.25,1.7,1,-1.1590823085939563,0.11564863209722395,-0.07128726847827055,-0.5581575759250207,0.4438657563606913,-0.7052308338586638,0.8543047284543455,-1.1363330171877684,1.9709341981823418,1.9709341981823418,1.1590823085939563,0,0,1
3,1,4,12,64_nestle_aero_mint.png,1.55,102_propercorn_worcester.png,2.3,0,8144,68,2981,2.0,-1364,4024,2660,4,1,0.7499999999999998,1.210307295689817,0.7499999999999998,0.6822025149253115,-0.3153860890334407,3.13046027577789,-0.16999999999999993,5.0,4.83,9.83,3.85,5.0,4.83,1.55,2.3,1,-0.09080368316173852,1.0558814133754963,1.3544581010870018,0.12880559444423215,1.7838378510344866,0.851256085129295,0.7361540456946504,1.1052006057579662,-1.9938927443382104,1.9938927443382104,0.09080368316173852,0,1,0
4,1,5,4,44_walkers_french_fries.png,2.0,111_propercorn_sweetnsalty.png,2.0,0,6559,88,2748,2.0,-1454,3478,2024,4,1,0.0,1.0451085762029443e-17,0.0,-1.4061725307644208,1.1805163095441429,2.132687292534775,0.6699999999999999,4.33,5.0,9.33,4.0,4.33,5.0,2.0,2.0,1,0.3578733395197929,0.8208232180559283,1.5920823293478803,1.1592503499981108,1.113851803697589,0.37068178295328935,0.8543047284543455,1.1052006057579662,-2.1404366559714143,2.1404366559714143,0.3578733395197929,1,1,0
5,1,6,39,50_nakd_rhubarb_and_custard.png,0.65,39_milkyway.png,1.25,0,5595,86,4134,2.0,-2305,3511,1206,3,1,0.6,0.968245836551854,0.6,0.26452750578736545,1.030926069686385,1.5258398755970064,4.08,0.0,4.08,4.08,1.9,0.0,4.08,0.65,1.25,1,2.1792883958817244,-1.6472878327995368,-1.7346568663044222,-1.932083916663526,-0.5611133146446553,-2.7351193042438817,0.214901033519525,0.3580227314427213,-3.5260907537475914,3.5260907537475914,2.1792883958817244,1,1,0
6,1,7,59,54_milkyway_magic_stars.png,1.55,30_starburst_original.png,1.1,1,2470,78,2759,2.0,689,670,1359,1,2,-0.45,-0.7261843774138904,0.45,-0.15314750335058114,0.4325651102553511,-0.4413781513018803,-0.16999999999999993,5.0,4.83,9.83,2.6500000000000004,4.83,5.0,1.1,1.55,1,-0.09080368316173852,1.0558814133754963,-0.5465357250000278,-0.9016391611096468,0.10887273269224257,0.729319321890607,0.8543047284543455,-1.1363330171877684,1.3489367065836353,1.3489367065836353,0.09080368316173852,1,0,1
7,1,8,16,116_boots_caramels.png,0.95,104_graze_sriracha.png,0.65,1,6091,72,2107,2.0,1331,1858,3189,2,2,-0.29999999999999993,-0.4841229182759269,0.29999999999999993,-0.5708225124885278,-0.016205609317923964,1.8380767208263973,-0.75,1.08,0.33,1.41,1.6,0.33,1.08,0.65,0.95,1,-0.40060448453708175,-2.9024985958060308,-2.20990532282618,-1.932083916663526,-1.2310993619815531,-2.498418528545252,-1.8701110151809768,-0.38915514287252345,2.394283276233818,2.394283276233818,0.40060448453708175,1,0,1
8,1,9,1,62_cadbury_wispa.png,1.55,47_daim.png,1.7,1,4669,68,2732,2.0,686,1604,2290,3,2,0.1499999999999999,0.2420614591379633,0.1499999999999999,-0.9884975216264744,-0.3153860890334407,0.9429138298663284,0.5,3.33,3.83,7.16,3.25,3.83,3.33,1.7,1.55,0,0.2670696563580545,-0.19932934963099727,0.4039611880434867,0.4722871796288583,0.10887273269224257,0.012044244015971631,-0.30635197865560043,0.3580227314427213,1.3440519095291952,1.3440519095291952,0.2670696563580545,0,1,1
9,1,10,48,44_walkers_french_fries.png,2.0,53_eat_natural_almond_apricot.png,1.1,1,4001,66,2461,2.0,2102,542,2644,1,2,-0.8999999999999999,-1.4523687548277808,0.8999999999999999,1.0998775240632583,-0.4649763288911991,0.5224013044364223,0.0,4.33,4.33,8.66,3.1,4.33,4.33,1.1,2.0,1,-7.906850177798411e-18,0.5058452363277071,0.16633695978260807,-0.9016391611096468,1.113851803697589,0.37068178295328935,0.3886520375779001,-1.1363330171877684,3.649676119224925,3.649676119224925,7.906850177798411e-18,0,0,1
10,1,11,37,13_fruit_pastilles.png,1.1,115_shapers_blueberry.png,1.1,0,3301,84,3204,2.0,-521,1595,1074,2,1,0.0,1.0451085762029443e-17,0.0,-1.4061725307644208,0.8813358298286262,0.08174446641107165,-3.0,4.33,1.33,5.66,2.2,4.33,1.33,1.1,1.1,1,-1.6024179381483268,-0.9045039355897015,-1.2594084097826643,-0.9016391611096468,-0.896106338313104,0.37068178295328935,-1.6963600111226014,-0.38915514287252345,-0.6212647720405409,0.6212647720405409,1.6024179381483268,1,0,0
11,1,12,6,36_nature_valley_protein_bars.png,1.4,111_propercorn_sweetnsalty.png,2.0,0,2867,84,1828,2.0,-409,1385,976,2,1,0.6000000000000001,0.968245836551854,0.6000000000000001,0.2645275057873658,0.8813358298286262,-0.1914627731646457,1.17,3.83,5.0,8.83,3.4,3.83,5.0,1.4,2.0,1,0.6249429958778474,0.5857650227363602,0.6415854163043653,-0.2146759907403945,1.113851803697589,0.012044244015971631,0.8543047284543455,-0.38915514287252345,-0.4388990153414435,0.4388990153414435,0.6249429958778474,1,0,0
12,1,13,35,41_jelly_babies_berry_mix.png,1.85,40_nestle_rolo.png,1.1,1,3117,72,3481,2.0,75,1182,1257,3,2,-0.75,-1.2103072956898175,0.75,0.6822025149253121,-0.016205609317923964,-0.03408533101273481,-0.5,4.58,4.08,8.66,2.95,4.08,4.58,1.1,1.85,1,-0.2670696563580545,0.5058452363277071,-0.07128726847827055,-0.9016391611096468,0.7788587800291404,0.19136301348463047,0.5624030416362753,0.3580227314427213,0.3491815761082269,0.3491815761082269,0.2670696563580545,1,1,1
13,1,14,45,51_smarties.png,1.7,43_mccoys_steak_crisps.png,2.0,1,10424,28,2052,2.0,-991,5054,4063,7,2,0.30000000000000004,0.4841229182759271,0.30000000000000004,-0.5708225124885274,-3.307190886188608,4.565742548203319,0.0,5.0,5.0,10.0,3.7,5.0,5.0,2.0,1.7,0,-7.906850177798411e-18,1.1358011997841495,1.1168338728261231,1.1592503499981108,0.4438657563606913,0.851256085129295,0.8543047284543455,3.3467342287037005,-1.386549643902824,1.386549643902824,7.906850177798411e-18,0,1,0
14,1,15,58,5_caramello.png,1.25,34_hobnob_flapjack.png,1.55,0,2754,70,1479,2.0,-379,1313,934,2,1,0.30000000000000004,0.4841229182759271,0.30000000000000004,-0.5708225124885274,-0.16579584917568232,-0.2625973770173095,-1.75,2.83,1.08,3.91,2.8,2.83,1.08,1.25,1.55,1,-0.9347437972531908,-1.7272076192081898,-0.30891149673914986,-0.5581575759250207,0.10887273269224257,-0.7052308338586638,-1.8701110151809768,-0.38915514287252345,-0.3900510447970425,0.3900510447970425,0.9347437972531908,1,0,0
15,1,16,41,11_lindt_orange.png,2.0,59_crunchie.png,1.7,1,5836,58,2950,2.0,76,2458,2534,5,2,-0.30000000000000004,-0.4841229182759271,0.30000000000000004,-0.5708225124885274,-1.0633372883222325,1.6775517298314486,0.25,4.75,5.0,9.75,3.7,5.0,4.75,1.7,2.0,1,0.13353482817902726,1.0182721021243657,1.1168338728261231,0.4722871796288583,1.113851803697589,0.851256085129295,0.6805537243959703,1.8523784800732108,0.35080984179304026,0.35080984179304026,0.13353482817902726,0,1,1
16,1,17,42,63_kitkat.png,1.85,19_pistachios.png,1.7,1,3931,56,3017,2.0,1039,1100,2139,3,2,-0.15000000000000013,-0.2420614591379637,0.15000000000000013,-0.9884975216264741,-1.212927528179991,0.4783356206338872,-0.6699999999999999,5.0,4.33,9.33,3.55,4.33,5.0,1.7,1.85,1,-0.3578733395197929,0.8208232180559283,0.8792096445652439,0.4722871796288583,0.7788587800291404,0.37068178295328935,0.8543047284543455,0.3580227314427213,1.9188296962683145,1.9188296962683145,0.3578733395197929,0,1,1
17,1,18,52,42_dairy_milk_fruit_and_nut.png,1.55,38_milkybar.png,0.8,1,3602,72,1979,2.0,470,1290,1760,1,2,-0.75,-1.2103072956898175,0.75,0.6822025149253121,-0.016205609317923964,0.2712269067619724,0.0,4.33,4.33,8.66,2.35,4.33,4.33,0.8,1.55,1,-7.906850177798411e-18,0.5058452363277071,-1.0217841815217856,-1.5886023314788995,0.10887273269224257,0.37068178295328935,0.3886520375779001,-1.1363330171877684,0.9923465216095076,0.9923465216095076,7.906850177798411e-18,1,0,1
18,1,19,49,52_discos_salt_vinegar.png,1.7,60_caramel_rice_crisps.png,1.4,0,5674,68,2473,2.0,946,1996,2942,4,1,-0.30000000000000004,-0.4841229182759271,0.30000000000000004,-0.5708225124885274,-0.3153860890334407,1.5755711473170102,-1.5,4.58,3.08,7.66,3.1,4.58,3.08,1.7,1.4,0,-0.8012089690741635,0.035728845688570834,0.16633695978260807,0.4722871796288583,-0.22612029097620664,0.5500005524219482,-0.4801029827139756,1.1052006057579662,1.767400987580671,1.767400987580671,0.8012089690741635,0,1,1
19,1,20,33,26_yorkie.png,1.7,58_walnut_whip.png,1.1,1,2567,78,3611,2.0,945,512,1457,1,2,-0.5999999999999999,-0.9682458365518538,0.5999999999999999,0.2645275057873652,0.4325651102553511,-0.3803157037469389,-3.25,3.58,0.33,3.91,2.8,0.33,3.58,1.1,1.7,1,-1.7359527663273542,-1.7272076192081898,-0.30891149673914986,-0.9016391611096468,0.4438657563606913,-2.498418528545252,-0.13260097459722528,-1.1363330171877684,1.7657727218958577,1.7657727218958577,1.7359527663273542,1,0,1
20,1,21,7,30_starburst_original.png,1.1,62_cadbury_wispa.png,1.55,0,2097,70,3321,2.0,-452,1032,580,2,1,0.45,0.7261843774138904,0.45,-0.15314750335058114,-0.16579584917568232,-0.6761852949925314,-1.5,4.83,3.33,8.16,2.6500000000000004,4.83,3.33,1.1,1.55,1,-0.8012089690741635,0.2707870410081389,-0.5465357250000278,-0.9016391611096468,0.10887273269224257,0.729319321890607,-0.30635197865560043,-0.38915514287252345,-0.5089144397884184,0.5089144397884184,0.8012089690741635,0,0,0
21,1,22,38,56_marshmallows.png,0.95,38_milkybar.png,0.8,0,3641,56,2259,2.0,-244,1672,1428,2,1,-0.1499999999999999,-0.2420614591379633,0.1499999999999999,-0.9884975216264744,-1.212927528179991,0.2957777877376705,0.5,3.83,4.33,8.16,1.75,3.83,4.33,0.95,0.8,0,0.2670696563580545,0.2707870410081389,-1.9722810945653009,-1.2451207462942735,-1.566092385650002,0.012044244015971631,0.3886520375779001,-0.38915514287252345,-0.1702351773472377,0.1702351773472377,0.2670696563580545,0,0,0
22,1,23,47,51_smarties.png,1.7,34_hobnob_flapjack.png,1.55,1,4550,78,1403,2.0,-544,2188,1644,3,2,-0.1499999999999999,-0.2420614591379633,0.1499999999999999,-0.9884975216264744,0.4325651102553511,0.8680021674020187,-3.92,5.0,1.08,6.08,3.25,1.08,5.0,1.55,1.7,1,-2.093826105847147,-0.7070550515212645,0.4039611880434867,0.12880559444423215,0.4438657563606913,-1.960462220139276,0.8543047284543455,0.3580227314427213,-0.6587148827912483,0.6587148827912483,2.093826105847147,1,1,0
23,1,24,34,19_pistachios.png,1.7,110_bombay_mix.png,1.4,1,2973,62,2855,2.0,1171,592,1763,1,2,-0.30000000000000004,-0.4841229182759271,0.30000000000000004,-0.5708225124885274,-0.7641568086067158,-0.1247347376922355,-0.75,4.33,3.58,7.91,3.1,3.58,4.33,1.4,1.7,1,-0.40060448453708175,0.15325794334835488,0.16633695978260807,-0.2146759907403945,0.4438657563606913,-0.16727452545268726,0.3886520375779001,-1.1363330171877684,2.133760766663679,2.133760766663679,0.40060448453708175,0,0,1
24,1,25,15,57_food_doctor_mild_korma_crisps.png,1.25,108_chilli_nuts.png,1.7,0,2824,68,2666,2.0,99,1095,1194,2,1,0.45,0.7261843774138904,0.45,-0.15314750335058114,-0.3153860890334407,-0.2185316932147744,3.25,0.08,3.33,3.41,2.95,0.08,3.33,1.25,1.7,1,1.7359527663273542,-1.962265814527758,-0.07128726847827055,-0.5581575759250207,0.4438657563606913,-2.6777372980139114,-0.30635197865560043,-0.38915514287252345,0.3882599525437477,0.3882599525437477,1.7359527663273542,0,0,1
25,1,26,5,113_walkers_cheese.png,2.0,32_snickers.png,2.3,0,3643,70,2331,2.0,-812,1858,1046,4,1,0.2999999999999998,0.4841229182759267,0.2999999999999998,-0.5708225124885281,-0.16579584917568232,0.2970368072748858,0.6699999999999999,4.33,5.0,9.33,4.3,4.33,5.0,2.0,2.3,1,0.3578733395197929,0.8208232180559283,2.067330785869637,1.1592503499981108,1.7838378510344866,0.37068178295328935,0.8543047284543455,1.1052006057579662,-1.095090086321231,1.095090086321231,0.3578733395197929,0,1,0
26,1,27,46,112_lindt_extra_creamy.png,1.85,104_graze_sriracha.png,0.65,1,2188,72,2191,2.0,389,680,1069,1,2,-1.2000000000000002,-1.9364916731037085,1.2000000000000002,1.9352275423391525,-0.016205609317923964,-0.6188999060492358,-3.75,4.08,0.33,4.41,2.5,0.33,4.08,0.65,1.85,1,-2.0030224226854085,-1.492149423888622,-0.7841599532609069,-1.932083916663526,0.7788587800291404,-2.498418528545252,0.214901033519525,-1.1363330171877684,0.8604570011396248,0.8604570011396248,2.0030224226854085,1,0,1
27,1,28,50,63_kitkat.png,1.85,20_crunch.png,1.1,1,3321,74,2863,2.0,1153,830,1983,3,2,-0.75,-1.2103072956898175,0.75,0.6822025149253121,0.1333846305398344,0.09433466178322453,-4.17,5.0,0.83,5.83,2.95,0.83,5.0,1.1,1.85,1,-2.2273609340261737,-0.8245841491810485,-0.07128726847827055,-0.9016391611096468,0.7788587800291404,-2.1397809896079347,0.8543047284543455,0.3580227314427213,2.104451984337038,2.104451984337038,2.2273609340261737,1,1,1
28,1,29,43,103_nakd_berry.png,1.85,35_mms_plain.png,2.0,0,6784,82,2539,2.0,-498,3186,2688,4,1,0.1499999999999999,0.2420614591379633,0.1499999999999999,-0.9884975216264744,0.7317455899708678,2.274326990471495,2.25,2.58,4.83,7.41,3.85,2.58,4.83,1.85,2.0,1,1.2018134536112453,-0.08180025197121323,1.3544581010870018,0.8157687648134849,1.113851803697589,-0.8845496033273226,0.7361540456946504,1.1052006057579662,-0.5838146612898334,0.5838146612898334,1.2018134536112453,1,1,0
29,1,30,11,18_galaxy_bar.png,1.1,32_snickers.png,2.3,0,2314,82,2320,2.0,153,825,978,2,1,1.1999999999999995,1.936491673103708,1.1999999999999995,1.9352275423391512,0.7317455899708678,-0.5395816752046727,0.25,4.75,5.0,9.75,3.4,4.75,5.0,1.1,2.3,1,0.13353482817902726,1.0182721021243657,0.6415854163043653,-0.9016391611096468,1.7838378510344866,0.6719373156606362,0.8543047284543455,-0.38915514287252345,0.4761862995236696,0.4761862995236696,0.13353482817902726,1,0,1
30,1,31,8,115_shapers_blueberry.png,1.1,43_mccoys_steak_crisps.png,2.0,0,2952,80,1805,2.0,-929,1655,726,2,1,0.8999999999999999,1.4523687548277808,0.8999999999999999,1.0998775240632583,0.5821553501131095,-0.13795444283299602,3.67,1.33,5.0,6.33,3.1,1.33,5.0,1.1,2.0,1,1.96029127766812,-0.5895259538614803,0.16633695978260807,-0.9016391611096468,1.113851803697589,-1.781143450670617,0.8543047284543455,-0.38915514287252345,-1.2855971714443952,1.2855971714443952,1.96029127766812,1,0,0
31,1,32,60,57_food_doctor_mild_korma_crisps.png,1.25,110_bombay_mix.png,1.4,0,8388,46,2465,2.0,-549,4045,3496,4,1,0.1499999999999999,0.2420614591379633,0.1499999999999999,-0.9884975216264744,-1.9608787274687833,3.284060659318155,3.5,0.08,3.58,3.66,2.65,0.08,3.58,1.25,1.4,1,1.8694875945063811,-1.844736716867974,-0.5465357250000284,-0.5581575759250207,-0.22612029097620664,-2.6777372980139114,-0.13260097459722528,1.1052006057579662,-0.6668562112153151,0.6668562112153151,1.8694875945063811,0,1,0
32,1,33,13,117_yogurt_raisins.png,1.25,103_nakd_berry.png,1.85,1,5341,62,1571,2.0,-982,2754,1772,3,2,0.6000000000000001,0.968245836551854,0.6000000000000001,0.2645275057873658,-0.7641568086067158,1.3659443943706648,-0.5,3.08,2.58,5.66,3.1,2.58,3.08,1.85,1.25,0,-0.2670696563580545,-0.9045039355897015,0.16633695978260807,0.8157687648134849,-0.5611133146446553,-0.8845496033273226,-0.4801029827139756,0.3580227314427213,-1.3718952527395036,1.3718952527395036,0.2670696563580545,0,1,0
33,1,34,57,40_nestle_rolo.png,1.1,48_mentos_mint.png,0.95,1,2183,74,2091,2.0,712,638,1350,1,2,-0.15000000000000013,-0.2420614591379637,0.15000000000000013,-0.9884975216264741,0.1333846305398344,-0.6220474548922741,-0.5,4.08,3.58,7.66,2.05,3.58,4.08,0.95,1.1,1,-0.2670696563580545,0.035728845688570834,-1.4970326380435437,-1.2451207462942735,-0.896106338313104,-0.16727452545268726,0.214901033519525,-1.1363330171877684,1.3863868173343428,1.3863868173343428,0.2670696563580545,1,0,1
34,1,35,10,48_mentos_mint.png,0.95,14_maltesers.png,1.85,0,3207,68,2466,2.0,438,1128,1566,2,1,0.9000000000000001,1.4523687548277813,0.9000000000000001,1.099877524063259,-0.3153860890334407,0.02257054816195313,1.42,3.58,5.0,8.58,2.8,3.58,5.0,0.95,1.85,1,0.7584778240568747,0.4682359250765761,-0.30891149673914986,-1.2451207462942735,0.7788587800291404,-0.16727452545268726,0.8543047284543455,-0.38915514287252345,0.9402420196954798,0.9402420196954798,0.7584778240568747,0,0,1
35,1,36,36,58_walnut_whip.png,1.1,23_kp_grazing_mix.png,1.55,1,3224,58,3722,2.0,888,920,1808,3,2,0.45,0.7261843774138904,0.45,-0.15314750335058114,-1.0633372883222325,0.033272214228283074,2.25,0.33,2.58,2.91,2.6500000000000004,2.58,0.33,1.55,1.1,0,1.2018134536112453,-2.197324009847326,-0.5465357250000278,0.12880559444423215,-0.896106338313104,-0.8845496033273226,-2.391364027356102,0.3580227314427213,1.6729615778614957,1.6729615778614957,1.2018134536112453,0,1,1
36,1,37,3,108_chilli_nuts.png,1.7,41_jelly_babies_berry_mix.png,1.85,1,3476,72,3189,2.0,-468,1560,1092,3,2,0.15000000000000013,0.2420614591379637,0.15000000000000013,-0.9884975216264741,-0.016205609317923964,0.1919086759174093,1.25,3.33,4.58,7.91,3.55,4.58,3.33,1.85,1.7,0,0.6676741408951362,0.15325794334835488,0.8792096445652439,0.8157687648134849,0.4438657563606913,0.5500005524219482,-0.30635197865560043,0.3580227314427213,-0.5349666907454322,0.5349666907454322,0.6676741408951362,1,1,0
37,1,38,9,50_nakd_rhubarb_and_custard.png,0.65,47_daim.png,1.7,0,2295,72,5333,2.0,-469,1159,690,2,1,1.0499999999999998,1.6944302139657443,1.0499999999999998,1.5175525332012048,-0.016205609317923964,-0.5515423608082181,3.83,0.0,3.83,3.83,2.35,0.0,3.83,0.65,1.7,1,2.045753567702697,-1.7648169304593209,-1.0217841815217856,-1.932083916663526,0.4438657563606913,-2.7351193042438817,0.04115002946114985,-0.38915514287252345,-0.5365949564302457,0.5365949564302457,2.045753567702697,1,0,0
38,1,39,2,107_graze_scream.png,1.55,109_kp_roast.png,2.3,0,3513,66,2712,2.0,-533,1753,1220,2,1,0.7499999999999998,1.210307295689817,0.7499999999999998,0.6822025149253115,-0.4649763288911991,0.21520053735589206,2.17,2.83,5.0,7.83,3.85,2.83,5.0,1.55,2.3,1,1.1590823085939563,0.11564863209722395,1.3544581010870018,0.12880559444423215,1.7838378510344866,-0.7052308338586638,0.8543047284543455,-0.38915514287252345,-0.6408039602583012,0.6408039602583012,1.1590823085939563,0,0,0
39,1,40,40,2_maynards_winegums.png,1.1,27_mars.png,0.95,1,4458,66,2996,2.0,172,1716,1888,3,2,-0.15000000000000013,-0.2420614591379637,0.15000000000000013,-0.9884975216264741,-0.4649763288911991,0.8100872686901155,0.5,4.08,4.58,8.66,2.05,4.58,4.08,0.95,1.1,1,0.2670696563580545,0.5058452363277071,-1.4970326380435437,-1.2451207462942735,-0.896106338313104,0.5500005524219482,0.214901033519525,0.3580227314427213,0.5071233475351237,0.5071233475351237,0.2670696563580545,0,1,1
40,1,41,57,40_nestle_rolo.png,1.1,48_mentos_mint.png,0.95,0,2009,80,3501,1.0,-213,859,646,2,1,-0.15000000000000013,-0.2420614591379637,0.15000000000000013,-0.9884975216264741,0.5821553501131095,-0.7315821546300041,-0.5,4.08,3.58,7.66,2.05,4.08,3.58,1.1,0.95,1,-0.2670696563580545,0.035728845688570834,-1.4970326380435437,-0.9016391611096468,-1.2310993619815531,0.19136301348463047,-0.13260097459722528,-0.38915514287252345,-0.11975894111802328,0.11975894111802328,0.2670696563580545,1,0,0
41,1,42,41,11_lindt_orange.png,2.0,59_crunchie.png,1.7,0,3371,78,2463,1.0,-1516,2200,684,2,1,-0.30000000000000004,-0.4841229182759271,0.30000000000000004,-0.5708225124885274,0.4325651102553511,0.1258101502136067,0.25,4.75,5.0,9.75,3.7,4.75,5.0,2.0,1.7,1,0.13353482817902726,1.0182721021243657,1.1168338728261231,1.1592503499981108,0.4438657563606913,0.6719373156606362,0.8543047284543455,-0.38915514287252345,-2.2413891284298426,2.2413891284298426,0.13353482817902726,1,1,0
42,1,43,11,18_galaxy_bar.png,1.1,32_snickers.png,2.3,1,1700,82,2707,1.0,133,566,699,1,2,1.1999999999999995,1.936491673103708,1.1999999999999995,1.9352275423391512,0.7317455899708678,-0.926100673129766,0.25,4.75,5.0,9.75,3.4,5.0,4.75,2.3,1.1,1,0.13353482817902726,1.0182721021243657,0.6415854163043653,1.8462135203673635,-0.896106338313104,0.851256085129295,0.6805537243959703,-1.1363330171877684,0.4436209858274023,0.4436209858274023,0.13353482817902726,1,0,1
43,1,44,60,57_food_doctor_mild_korma_crisps.png,1.25,110_bombay_mix.png,1.4,1,7466,42,2083,1.0,-133,3184,3051,5,2,0.1499999999999999,0.2420614591379633,0.1499999999999999,-0.9884975216264744,-2.2600592071842995,2.7036526526619085,3.5,0.08,3.58,3.66,2.65,3.58,0.08,1.4,1.25,1,1.8694875945063811,-1.844736716867974,-0.5465357250000284,-0.2146759907403945,-0.5611133146446553,-0.16727452545268726,-2.5651150314144773,1.8523784800732108,0.01050231366704621,0.01050231366704621,1.8694875945063811,0,1,0
44,1,45,5,113_walkers_cheese.png,2.0,32_snickers.png,2.3,1,1889,70,1681,1.0,-88,778,690,1,2,0.2999999999999998,0.4841229182759267,0.2999999999999998,-0.5708225124885281,-0.16579584917568232,-0.8071233268629213,0.6699999999999999,4.33,5.0,9.33,4.3,5.0,4.33,2.3,2.0,1,0.3578733395197929,0.8208232180559283,2.067330785869637,1.8462135203673635,1.113851803697589,0.851256085129295,0.3886520375779001,-1.1363330171877684,0.0837742694836478,0.0837742694836478,0.3578733395197929,0,0,1
45,1,46,3,108_chilli_nuts.png,1.7,41_jelly_babies_berry_mix.png,1.85,1,2227,74,1989,1.0,400,656,1056,1,2,0.15000000000000013,0.2420614591379637,0.15000000000000013,-0.9884975216264741,0.1333846305398344,-0.5943490250735377,1.25,3.33,4.58,7.91,3.55,4.58,3.33,1.85,1.7,1,0.6676741408951362,0.15325794334835488,0.8792096445652439,0.8157687648134849,0.4438657563606913,0.5500005524219482,-0.30635197865560043,-1.1363330171877684,0.8783679236725718,0.8783679236725718,0.6676741408951362,0,0,1
46,1,47,46,112_lindt_extra_creamy.png,1.85,104_graze_sriracha.png,0.65,0,4259,70,2275,1.0,276,1668,1944,2,1,-1.2000000000000002,-1.9364916731037085,1.2000000000000002,1.9352275423391525,-0.16579584917568232,0.6848148247371943,-3.75,4.08,0.33,4.41,2.5,4.08,0.33,1.85,0.65,1,-2.0030224226854085,-1.492149423888622,-0.7841599532609069,0.8157687648134849,-1.9010854093184508,0.19136301348463047,-2.391364027356102,-0.38915514287252345,0.676462978755714,0.676462978755714,2.0030224226854085,0,1,1
47,1,48,52,42_dairy_milk_fruit_and_nut.png,1.55,38_milkybar.png,0.8,0,3505,76,2208,1.0,-1232,2046,814,2,1,-0.75,-1.2103072956898175,0.75,0.6822025149253121,0.2829748703975928,0.21016445920703092,0.0,4.33,4.33,8.66,2.35,4.33,4.33,1.55,0.8,1,-7.906850177798411e-18,0.5058452363277071,-1.0217841815217856,0.12880559444423215,-1.566092385650002,0.37068178295328935,0.3886520375779001,-0.38915514287252345,-1.7789616739428458,1.7789616739428458,7.906850177798411e-18,0,1,0
48,1,49,59,54_milkyway_magic_stars.png,1.55,30_starburst_original.png,1.1,0,2548,90,2177,1.0,-109,1093,984,2,1,-0.45,-0.7261843774138904,0.45,-0.15314750335058114,1.3301065494019009,-0.3922763893504841,-0.16999999999999993,5.0,4.83,9.83,2.6500000000000004,5.0,4.83,1.55,1.1,1,-0.09080368316173852,1.0558814133754963,-0.5465357250000278,0.12880559444423215,-0.896106338313104,0.851256085129295,0.7361540456946504,-0.38915514287252345,0.049580690102567056,0.049580690102567056,0.09080368316173852,1,1,1
49,1,50,8,115_shapers_blueberry.png,1.1,43_mccoys_steak_crisps.png,2.0,1,3226,54,2619,1.0,-475,1598,1123,3,2,0.8999999999999999,1.4523687548277808,0.8999999999999999,1.0998775240632583,-1.3625177680377492,0.03453123376549836,3.67,1.33,5.0,6.33,3.1,5.0,1.33,2.0,1.1,1,1.96029127766812,-0.5895259538614803,0.16633695978260807,1.1592503499981108,-0.896106338313104,0.851256085129295,-1.6963600111226014,0.3580227314427213,-0.5463645505391259,0.5463645505391259,1.96029127766812,0,1,0
50,1,51,35,41_jelly_babies_berry_mix.png,1.85,40_nestle_rolo.png,1.1,0,4604,60,1663,1.0,-401,2117,1716,4,1,-0.75,-1.2103072956898175,0.75,0.6822025149253121,-0.9137470484644742,0.9019956949068316,-0.5,4.58,4.08,8.66,2.95,4.58,4.08,1.85,1.1,1,-0.2670696563580545,0.5058452363277071,-0.07128726847827055,0.8157687648134849,-0.896106338313104,0.5500005524219482,0.214901033519525,1.1052006057579662,-0.4258728898629366,0.4258728898629366,0.2670696563580545,0,1,0
51,1,52,14,116_boots_caramels.png,0.95,31_beef_jerky.png,2.0,0,6333,56,2889,1.0,-1359,3251,1892,4,1,1.05,1.6944302139657446,1.05,1.5175525332012054,-1.212927528179991,1.990418084829448,3.75,1.08,4.83,5.91,2.95,1.08,4.83,0.95,2.0,0,2.0030224226854085,-0.7869748379299175,-0.07128726847827055,-1.2451207462942735,1.113851803697589,-1.960462220139276,0.7361540456946504,1.1052006057579662,-1.985751415914144,1.985751415914144,2.0030224226854085,0,1,0
52,1,53,38,56_marshmallows.png,0.95,38_milkybar.png,0.8,0,5716,58,1441,1.0,-1054,2948,1894,4,1,-0.1499999999999999,-0.2420614591379633,0.1499999999999999,-0.9884975216264744,-1.0633372883222325,1.6020105575985313,0.5,3.83,4.33,8.16,1.75,3.83,4.33,0.95,0.8,1,0.2670696563580545,0.2707870410081389,-1.9722810945653009,-1.2451207462942735,-1.566092385650002,0.012044244015971631,0.3886520375779001,1.1052006057579662,-1.4891303820460662,1.4891303820460662,0.2670696563580545,0,1,0
53,1,54,48,44_walkers_french_fries.png,2.0,53_eat_natural_almond_apricot.png,1.1,0,3562,80,1688,1.0,-1314,2180,866,2,1,-0.8999999999999999,-1.4523687548277808,0.8999999999999999,1.0998775240632583,0.5821553501131095,0.2460465160176667,0.0,4.33,4.33,8.66,3.1,4.33,4.33,2.0,1.1,1,-7.906850177798411e-18,0.5058452363277071,0.16633695978260807,1.1592503499981108,-0.896106338313104,0.37068178295328935,0.3886520375779001,-0.38915514287252345,-1.912479460097542,1.912479460097542,7.906850177798411e-18,1,1,0
54,1,55,50,63_kitkat.png,1.85,20_crunch.png,1.1,0,2447,94,2441,1.0,-323,1173,850,2,1,-0.75,-1.2103072956898175,0.75,0.6822025149253121,1.6292870291174182,-0.4558568759798562,-4.17,5.0,0.83,5.83,2.95,5.0,0.83,1.85,1.1,1,-2.2273609340261737,-0.8245841491810485,-0.07128726847827055,0.8157687648134849,-0.896106338313104,0.851256085129295,-2.043862019239352,-0.38915514287252345,-0.2988681664474938,0.2988681664474938,2.2273609340261737,1,1,0
55,1,56,13,117_yogurt_raisins.png,1.25,103_nakd_berry.png,1.85,1,2120,48,2342,1.0,486,606,1092,1,2,0.6000000000000001,0.968245836551854,0.6000000000000001,0.2645275057873658,-1.811288487611024,-0.6617065703145556,-0.5,3.08,2.58,5.66,3.1,2.58,3.08,1.85,1.25,1,-0.2670696563580545,-0.9045039355897015,0.16633695978260807,0.8157687648134849,-0.5611133146446553,-0.8845496033273226,-0.4801029827139756,-1.1363330171877684,1.0183987725665216,1.0183987725665216,0.2670696563580545,0,0,1
56,1,57,4,44_walkers_french_fries.png,2.0,111_propercorn_sweetnsalty.png,2.0,1,6932,60,2057,1.0,-989,3262,2273,7,2,0.0,1.0451085762029443e-17,0.0,-1.4061725307644208,-0.9137470484644742,2.3674944362254258,0.6699999999999999,4.33,5.0,9.33,4.0,5.0,4.33,2.0,2.0,1,0.3578733395197929,0.8208232180559283,1.5920823293478803,1.1592503499981108,1.113851803697589,0.851256085129295,0.3886520375779001,3.3467342287037005,-1.3832931125331973,1.3832931125331973,0.3578733395197929,0,1,0
57,1,58,15,57_food_doctor_mild_korma_crisps.png,1.25,108_chilli_nuts.png,1.7,1,4274,58,2353,1.0,429,1612,2041,3,2,0.45,0.7261843774138904,0.45,-0.15314750335058114,-1.0633372883222325,0.694257471266309,3.25,0.08,3.33,3.41,2.95,3.33,0.08,1.7,1.25,1,1.7359527663273542,-1.962265814527758,-0.07128726847827055,0.4722871796288583,-0.5611133146446553,-0.34659329492134605,-2.5651150314144773,0.3580227314427213,0.9255876285321596,0.9255876285321596,1.7359527663273542,0,1,1
58,1,59,49,52_discos_salt_vinegar.png,1.7,60_caramel_rice_crisps.png,1.4,0,6854,62,1310,1.0,-1032,3542,2510,4,1,-0.30000000000000004,-0.4841229182759271,0.30000000000000004,-0.5708225124885274,-0.7641568086067158,2.3183926742740297,-1.5,4.58,3.08,7.66,3.1,4.58,3.08,1.7,1.4,1,-0.8012089690741635,0.035728845688570834,0.16633695978260807,0.4722871796288583,-0.22612029097620664,0.5500005524219482,-0.4801029827139756,1.1052006057579662,-1.453308536980172,1.453308536980172,0.8012089690741635,0,1,0
59,1,60,37,13_fruit_pastilles.png,1.1,115_shapers_blueberry.png,1.1,0,6698,66,2809,1.0,-1497,3459,1962,4,1,0.0,1.0451085762029443e-17,0.0,-1.4061725307644208,-0.4649763288911991,2.2201891503712377,-3.0,4.33,1.33,5.66,2.2,4.33,1.33,1.1,1.1,1,-1.6024179381483268,-0.9045039355897015,-1.2594084097826643,-0.9016391611096468,-0.896106338313104,0.37068178295328935,-1.6963600111226014,1.1052006057579662,-2.2104520804183885,2.2104520804183885,1.6024179381483268,0,1,0
60,1,61,40,2_maynards_winegums.png,1.1,27_mars.png,0.95,0,2913,70,1767,1.0,-249,1325,1076,2,1,-0.15000000000000013,-0.2420614591379637,0.15000000000000013,-0.9884975216264741,-0.16579584917568232,-0.16250532380869415,0.5,4.08,4.58,8.66,2.05,4.08,4.58,1.1,0.95,1,0.2670696563580545,0.5058452363277071,-1.4970326380435437,-0.9016391611096468,-1.2310993619815531,0.19136301348463047,0.5624030416362753,-0.38915514287252345,-0.17837650577130454,0.17837650577130454,0.2670696563580545,0,1,0
61,1,62,47,51_smarties.png,1.7,34_hobnob_flapjack.png,1.55,0,4513,52,1855,1.0,-1371,2589,1218,4,1,-0.1499999999999999,-0.2420614591379633,0.1499999999999999,-0.9884975216264744,-1.5121080078955076,0.8447103059635359,-3.92,5.0,1.08,6.08,3.25,5.0,1.08,1.7,1.55,1,-2.093826105847147,-0.7070550515212645,0.4039611880434867,0.4722871796288583,0.10887273269224257,0.851256085129295,-1.8701110151809768,1.1052006057579662,-2.005290604131904,2.005290604131904,2.093826105847147,0,1,0
62,1,63,43,103_nakd_berry.png,1.85,35_mms_plain.png,2.0,1,2110,72,1571,1.0,427,608,1035,1,2,0.1499999999999999,0.2420614591379633,0.1499999999999999,-0.9884975216264744,-0.016205609317923964,-0.6680016680006321,2.25,2.58,4.83,7.41,3.85,4.83,2.58,2.0,1.85,1,1.2018134536112453,-0.08180025197121323,1.3544581010870018,1.1592503499981108,0.7788587800291404,0.729319321890607,-0.8276049908307258,-1.1363330171877684,0.9223310971625328,0.9223310971625328,1.2018134536112453,0,0,1
63,1,64,34,19_pistachios.png,1.7,110_bombay_mix.png,1.4,0,3385,70,1517,1.0,-307,1389,1082,1,1,-0.30000000000000004,-0.4841229182759271,0.30000000000000004,-0.5708225124885274,-0.16579584917568232,0.13462328697411372,-0.75,4.33,3.58,7.91,3.1,4.33,3.58,1.7,1.4,1,-0.40060448453708175,0.15325794334835488,0.16633695978260807,0.4722871796288583,-0.22612029097620664,0.37068178295328935,-0.13260097459722528,-1.1363330171877684,-0.27281591549047995,0.27281591549047995,0.40060448453708175,0,0,0
64,1,65,6,36_nature_valley_protein_bars.png,1.4,111_propercorn_sweetnsalty.png,2.0,1,2456,82,1369,1.0,613,688,1301,1,2,0.6000000000000001,0.968245836551854,0.6000000000000001,0.2645275057873658,0.7317455899708678,-0.45019128806238734,1.17,3.83,5.0,8.83,3.4,5.0,3.83,2.0,1.4,1,0.6249429958778474,0.5857650227363602,0.6415854163043653,1.1592503499981108,-0.22612029097620664,0.851256085129295,0.04115002946114985,-1.1363330171877684,1.2251885145378194,1.2251885145378194,0.6249429958778474,1,0,1
65,1,66,42,63_kitkat.png,1.85,19_pistachios.png,1.7,0,2136,82,3149,1.0,-146,934,788,2,1,-0.15000000000000013,-0.2420614591379637,0.15000000000000013,-0.9884975216264741,0.7317455899708678,-0.6516344140168333,-0.6699999999999999,5.0,4.33,9.33,3.55,5.0,4.33,1.85,1.7,1,-0.3578733395197929,0.8208232180559283,0.8792096445652439,0.8157687648134849,0.4438657563606913,0.851256085129295,0.3886520375779001,-0.38915514287252345,-0.010665140235527584,0.010665140235527584,0.3578733395197929,1,1,0
66,1,67,36,58_walnut_whip.png,1.1,23_kp_grazing_mix.png,1.55,1,7010,74,3076,1.0,398,2716,3114,4,2,0.45,0.7261843774138904,0.45,-0.15314750335058114,0.1333846305398344,2.4165961981768223,2.25,0.33,2.58,2.91,2.6500000000000004,2.58,0.33,1.55,1.1,1,1.2018134536112453,-2.197324009847326,-0.5465357250000278,0.12880559444423215,-0.896106338313104,-0.8845496033273226,-2.391364027356102,1.1052006057579662,0.8751113923029451,0.8751113923029451,1.2018134536112453,0,1,1
67,1,68,16,116_boots_caramels.png,0.95,104_graze_sriracha.png,0.65,0,4784,58,2323,1.0,594,1718,2312,2,1,-0.29999999999999993,-0.4841229182759269,0.29999999999999993,-0.5708225124885278,-1.0633372883222325,1.0153074532562074,-0.75,1.08,0.33,1.41,1.6,1.08,0.33,0.95,0.65,1,-0.40060448453708175,-2.9024985958060308,-2.20990532282618,-1.2451207462942735,-1.9010854093184508,-1.960462220139276,-2.391364027356102,-0.38915514287252345,1.1942514665263653,1.1942514665263653,0.40060448453708175,0,1,1
68,1,69,7,30_starburst_original.png,1.1,62_cadbury_wispa.png,1.55,1,2697,68,1864,1.0,577,812,1389,1,2,0.45,0.7261843774138904,0.45,-0.15314750335058114,-0.3153860890334407,-0.2984794338279452,-1.5,4.83,3.33,8.16,2.6500000000000004,3.33,4.83,1.55,1.1,1,-0.8012089690741635,0.2707870410081389,-0.5465357250000278,0.12880559444423215,-0.896106338313104,-0.34659329492134605,0.7361540456946504,-1.1363330171877684,1.166570949884538,1.166570949884538,0.8012089690741635,0,0,1
69,1,70,58,5_caramello.png,1.25,34_hobnob_flapjack.png,1.55,1,4654,48,2271,1.0,1377,1296,2673,3,2,0.30000000000000004,0.4841229182759271,0.30000000000000004,-0.5708225124885274,-1.811288487611024,0.9334711833372136,-1.75,2.83,1.08,3.91,2.8,1.08,2.83,1.55,1.25,1,-0.9347437972531908,-1.7272076192081898,-0.30891149673914986,0.12880559444423215,-0.5611133146446553,-1.960462220139276,-0.6538539867723507,0.3580227314427213,2.469183497735233,2.469183497735233,0.9347437972531908,0,1,1
70,1,71,2,107_graze_scream.png,1.55,109_kp_roast.png,2.3,1,1916,90,3352,1.0,284,620,904,1,2,0.7499999999999998,1.210307295689817,0.7499999999999998,0.6822025149253115,1.3301065494019009,-0.790126563110515,2.17,2.83,5.0,7.83,3.85,5.0,2.83,2.3,1.55,1,1.1590823085939563,0.11564863209722395,1.3544581010870018,1.8462135203673635,0.10887273269224257,0.851256085129295,-0.6538539867723507,-1.1363330171877684,0.6894891042342209,0.6894891042342209,1.1590823085939563,1,0,1
71,1,72,51,59_crunchie.png,1.7,5_caramello.png,1.25,0,2033,80,3897,1.0,-345,951,606,2,1,-0.45,-0.7261843774138904,0.45,-0.15314750335058114,0.5821553501131095,-0.7164739201834206,-2.17,5.0,2.83,7.83,2.95,5.0,2.83,1.7,1.25,1,-1.1590823085939563,0.11564863209722395,-0.07128726847827055,0.4722871796288583,-0.5611133146446553,0.851256085129295,-0.6538539867723507,-0.38915514287252345,-0.33469001151338795,0.33469001151338795,1.1590823085939563,1,1,0
72,1,73,10,48_mentos_mint.png,0.95,14_maltesers.png,1.85,1,1441,80,2484,1.0,52,514,566,1,2,0.9000000000000001,1.4523687548277813,0.9000000000000001,1.099877524063259,0.5821553501131095,-1.0891437031991458,1.42,3.58,5.0,8.58,2.8,5.0,3.58,1.85,0.95,1,0.7584778240568747,0.4682359250765761,-0.30891149673914986,0.8157687648134849,-1.2310993619815531,0.851256085129295,-0.13260097459722528,-1.1363330171877684,0.3117314653575194,0.3117314653575194,0.7584778240568747,1,0,1
73,1,74,39,50_nakd_rhubarb_and_custard.png,0.65,39_milkyway.png,1.25,1,3579,76,1792,1.0,-447,1624,1177,5,2,0.6,0.968245836551854,0.6,0.26452750578736545,0.2829748703975928,0.25674818208399663,4.08,0.0,4.08,4.08,1.9,4.08,0.0,1.25,0.65,1,2.1792883958817244,-1.6472878327995368,-1.7346568663044222,-0.5581575759250207,-1.9010854093184508,0.19136301348463047,-2.6207153527131566,1.8523784800732108,-0.5007731113643515,0.5007731113643515,2.1792883958817244,0,1,0
74,1,75,45,51_smarties.png,1.7,43_mccoys_steak_crisps.png,2.0,1,7377,48,3060,1.0,-1097,3619,2522,4,1,0.30000000000000004,0.4841229182759271,0.30000000000000004,-0.5708225124885274,-1.811288487611024,2.6476262832558275,0.0,5.0,5.0,10.0,3.7,5.0,5.0,2.0,1.7,1,-7.906850177798411e-18,1.1358011997841495,1.1168338728261231,1.1592503499981108,0.4438657563606913,0.851256085129295,0.8543047284543455,1.1052006057579662,-1.559145806493041,1.559145806493041,7.906850177798411e-18,0,1,0
75,1,76,44,102_propercorn_worcester.png,2.3,26_yorkie.png,1.7,0,2921,62,2942,1.0,-120,1282,1162,2,1,-0.5999999999999999,-0.9682458365518538,0.5999999999999999,0.2645275057873652,-0.7641568086067158,-0.15746924565983295,-1.25,4.83,3.58,8.41,4.0,4.83,3.58,2.3,1.7,1,-0.6676741408951362,0.38831613866792297,1.5920823293478803,1.8462135203673635,0.4438657563606913,0.729319321890607,-0.13260097459722528,-0.38915514287252345,0.03166976756962,0.03166976756962,0.6676741408951362,0,1,0
76,1,77,12,64_nestle_aero_mint.png,1.55,102_propercorn_worcester.png,2.3,0,6398,54,4096,1.0,-1078,3234,2156,4,1,0.7499999999999998,1.210307295689817,0.7499999999999998,0.6822025149253115,-1.3625177680377492,2.0313362197889444,-0.16999999999999993,5.0,4.83,9.83,3.85,5.0,4.83,1.55,2.3,0,-0.09080368316173852,1.0558814133754963,1.3544581010870018,0.12880559444423215,1.7838378510344866,0.851256085129295,0.7361540456946504,1.1052006057579662,-1.5282087584815869,1.5282087584815869,0.09080368316173852,0,1,0
77,1,78,9,50_nakd_rhubarb_and_custard.png,0.65,47_daim.png,1.7,1,2919,72,3229,1.0,1028,704,1732,1,2,1.0499999999999998,1.6944302139657443,1.0499999999999998,1.5175525332012048,-0.016205609317923964,-0.15872826519704827,3.83,0.0,3.83,3.83,2.35,3.83,0.0,1.7,0.65,1,2.045753567702697,-1.7648169304593209,-1.0217841815217856,0.4722871796288583,-1.9010854093184508,0.012044244015971631,-2.6207153527131566,-1.1363330171877684,1.9009187737353672,1.9009187737353672,2.045753567702697,0,0,1
78,1,79,1,62_cadbury_wispa.png,1.55,47_daim.png,1.7,0,4737,76,2358,1.0,-573,2273,1700,4,1,0.1499999999999999,0.2420614591379633,0.1499999999999999,-0.9884975216264744,0.2829748703975928,0.985720494131648,0.5,3.33,3.83,7.16,3.25,3.33,3.83,1.55,1.7,0,0.2670696563580545,-0.19932934963099727,0.4039611880434867,0.12880559444423215,0.4438657563606913,-0.34659329492134605,0.04115002946114985,1.1052006057579662,-0.7059345876508359,0.7059345876508359,0.2670696563580545,0,1,0
79,1,80,33,26_yorkie.png,1.7,58_walnut_whip.png,1.1,0,3459,82,2203,1.0,-48,1414,1366,2,1,-0.5999999999999999,-0.9682458365518538,0.5999999999999999,0.2645275057873652,0.7317455899708678,0.18120700985107926,-3.25,3.58,0.33,3.91,2.8,3.58,0.33,1.7,1.1,1,-1.7359527663273542,-1.7272076192081898,-0.30891149673914986,0.4722871796288583,-0.896106338313104,-0.16727452545268726,-2.391364027356102,-0.38915514287252345,0.14890489687618255,0.14890489687618255,1.7359527663273542,1,1,1
80,1,81,7,62_cadbury_wispa.png,1.55,30_starburst_original.png,1.1,1,2348,82,1872,2.0,196,836,1032,1,2,-0.45,-0.7261843774138904,0.45,-0.15314750335058114,0.7317455899708678,-0.5181783430720128,1.5,3.33,4.83,8.16,2.6500000000000004,4.83,3.33,1.1,1.55,1,0.8012089690741635,0.2707870410081389,-0.5465357250000278,-0.9016391611096468,0.10887273269224257,0.729319321890607,-0.30635197865560043,-1.1363330171877684,0.5462017239706445,0.5462017239706445,0.8012089690741635,1,0,1
81,1,82,34,110_bombay_mix.png,1.4,19_pistachios.png,1.7,0,2809,64,2956,2.0,-930,1498,568,2,1,0.30000000000000004,0.4841229182759271,0.30000000000000004,-0.5708225124885274,-0.6145665687489574,-0.2279743397438891,0.75,3.58,4.33,7.91,3.1,3.58,4.33,1.4,1.7,1,0.40060448453708175,0.15325794334835488,0.16633695978260807,-0.2146759907403945,0.4438657563606913,-0.16727452545268726,0.3886520375779001,-0.38915514287252345,-1.2872254371292084,1.2872254371292084,0.40060448453708175,0,0,0
82,1,83,33,58_walnut_whip.png,1.1,26_yorkie.png,1.7,0,1992,78,2819,2.0,-471,1049,578,2,1,0.5999999999999999,0.9682458365518538,0.5999999999999999,0.2645275057873652,0.4325651102553511,-0.7422838206963341,3.25,0.33,3.58,3.91,2.8,0.33,3.58,1.1,1.7,1,1.7359527663273542,-1.7272076192081898,-0.30891149673914986,-0.9016391611096468,0.4438657563606913,-2.498418528545252,-0.13260097459722528,-0.38915514287252345,-0.5398514877998724,0.5398514877998724,1.7359527663273542,1,0,0
83,1,84,10,14_maltesers.png,1.85,48_mentos_mint.png,0.95,1,1534,88,1986,2.0,283,561,844,1,2,-0.9000000000000001,-1.4523687548277813,0.9000000000000001,1.099877524063259,1.1805163095441429,-1.0305992947186349,-1.42,5.0,3.58,8.58,2.8,3.58,5.0,0.95,1.85,1,-0.7584778240568747,0.4682359250765761,-0.30891149673914986,-1.2451207462942735,0.7788587800291404,-0.16727452545268726,0.8543047284543455,-1.1363330171877684,0.6878608385494076,0.6878608385494076,0.7584778240568747,1,0,1
84,1,85,31,27_mars.png,0.95,109_kp_roast.png,2.3,0,3023,80,2073,2.0,-375,1475,1100,2,1,1.35,2.178553132241672,1.35,2.352902551477098,0.5821553501131095,-0.09325924926185332,0.4199999999999999,4.58,5.0,9.58,3.25,4.58,5.0,0.95,2.3,1,0.2243385113407657,0.9383523157157124,0.4039611880434867,-1.2451207462942735,1.7838378510344866,0.5500005524219482,0.8543047284543455,-0.38915514287252345,-0.383537982057789,0.383537982057789,0.2243385113407657,1,0,0
85,1,86,4,111_propercorn_sweetnsalty.png,2.0,44_walkers_french_fries.png,2.0,0,3452,84,2307,2.0,-825,1857,1032,4,1,0.0,1.0451085762029443e-17,0.0,-1.4061725307644208,0.8813358298286262,0.17680044147082585,-0.6699999999999999,5.0,4.33,9.33,4.0,5.0,4.33,2.0,2.0,1,-0.3578733395197929,0.8208232180559283,1.5920823293478803,1.1592503499981108,1.113851803697589,0.851256085129295,0.3886520375779001,1.1052006057579662,-1.1162575402238049,1.1162575402238049,0.3578733395197929,1,1,0
86,1,87,55,45_gb_ginger.png,2.0,23_kp_grazing_mix.png,1.55,1,3961,78,1829,2.0,403,1484,1887,3,2,-0.45,-0.7261843774138904,0.45,-0.15314750335058114,0.4325651102553511,0.4972209136921165,-2.25,4.83,2.58,7.41,3.55,2.58,4.83,1.55,2.0,1,-1.2018134536112453,-0.08180025197121323,0.8792096445652439,0.12880559444423215,1.113851803697589,-0.8845496033273226,0.7361540456946504,0.3580227314427213,0.8832527207270119,0.8832527207270119,1.2018134536112453,1,1,1
87,1,88,8,43_mccoys_steak_crisps.png,2.0,115_shapers_blueberry.png,1.1,1,2636,68,2174,2.0,146,984,1130,3,2,-0.8999999999999999,-1.4523687548277808,0.8999999999999999,1.0998775240632583,-0.3153860890334407,-0.33687952971301144,-3.67,5.0,1.33,6.33,3.1,1.33,5.0,1.1,2.0,1,-1.96029127766812,-0.5895259538614803,0.16633695978260807,-0.9016391611096468,1.113851803697589,-1.781143450670617,0.8543047284543455,0.3580227314427213,0.4647884397299761,0.4647884397299761,1.96029127766812,0,1,1
88,1,89,54,11_lindt_orange.png,2.0,2_maynards_winegums.png,1.1,1,1898,76,1720,2.0,143,708,851,1,2,-0.8999999999999999,-1.4523687548277808,0.8999999999999999,1.0998775240632583,0.2829748703975928,-0.8014577389454526,-0.6699999999999999,4.75,4.08,8.83,3.1,4.08,4.75,1.1,2.0,1,-0.3578733395197929,0.5857650227363602,0.16633695978260807,-0.9016391611096468,1.113851803697589,0.19136301348463047,0.6805537243959703,-1.1363330171877684,0.459903642675536,0.459903642675536,0.3578733395197929,1,0,1
89,1,90,11,32_snickers.png,2.3,18_galaxy_bar.png,1.1,1,1725,82,1565,2.0,39,652,691,1,2,-1.1999999999999995,-1.936491673103708,1.1999999999999995,1.9352275423391512,0.7317455899708678,-0.9103629289145748,-0.25,5.0,4.75,9.75,3.4,4.75,5.0,1.1,2.3,1,-0.13353482817902726,1.0182721021243657,0.6415854163043653,-0.9016391611096468,1.7838378510344866,0.6719373156606362,0.8543047284543455,-1.1363330171877684,0.2905640114549456,0.2905640114549456,0.13353482817902726,1,0,1
90,1,91,5,32_snickers.png,2.3,113_walkers_cheese.png,2.0,1,4336,52,3990,2.0,-151,1932,1781,5,2,-0.2999999999999998,-0.4841229182759267,0.2999999999999998,-0.5708225124885281,-1.5121080078955076,0.7332870769199828,-0.6699999999999999,5.0,4.33,9.33,4.3,4.33,5.0,2.0,2.3,1,-0.3578733395197929,0.8208232180559283,2.067330785869637,1.1592503499981108,1.7838378510344866,0.37068178295328935,0.8543047284543455,1.8523784800732108,-0.018806468659594427,0.018806468659594427,0.3578733395197929,0,1,0
91,1,92,57,48_mentos_mint.png,0.95,40_nestle_rolo.png,1.1,0,2037,64,2046,2.0,-464,1024,560,2,1,0.15000000000000013,0.2420614591379637,0.15000000000000013,-0.9884975216264741,-0.6145665687489574,-0.7139558811089901,0.5,3.58,4.08,7.66,2.05,3.58,4.08,0.95,1.1,1,0.2670696563580545,0.035728845688570834,-1.4970326380435437,-1.2451207462942735,-0.896106338313104,-0.16727452545268726,0.214901033519525,-0.38915514287252345,-0.5284536280061788,0.5284536280061788,0.2670696563580545,0,0,0
92,1,93,32,55_bassetts_licorice_allsorts.png,0.35,24_twix.png,1.85,0,2479,86,1253,2.0,-270,1144,874,2,1,1.5,2.420614591379634,1.5,2.770577560615045,1.030926069686385,-0.4357125633844115,0.6699999999999999,4.33,5.0,9.33,2.2,4.33,5.0,0.35,1.85,1,0.3578733395197929,0.8208232180559283,-1.2594084097826643,-2.6190470870327784,0.7788587800291404,0.37068178295328935,0.8543047284543455,-0.38915514287252345,-0.2125700851523853,0.2125700851523853,0.3578733395197929,1,0,0
93,1,94,2,109_kp_roast.png,2.3,107_graze_scream.png,1.55,1,3389,66,2600,2.0,248,1312,1560,3,2,-0.7499999999999998,-1.210307295689817,0.7499999999999998,0.6822025149253115,-0.4649763288911991,0.1371413260485443,-2.17,5.0,2.83,7.83,3.85,2.83,5.0,1.55,2.3,1,-1.1590823085939563,0.11564863209722395,1.3544581010870018,0.12880559444423215,1.7838378510344866,-0.7052308338586638,0.8543047284543455,0.3580227314427213,0.6308715395809397,0.6308715395809397,1.1590823085939563,0,1,1
94,1,95,25,52_discos_salt_vinegar.png,1.7,45_gb_ginger.png,2.0,0,2339,70,2130,2.0,-107,1003,896,2,1,0.30000000000000004,0.4841229182759271,0.30000000000000004,-0.5708225124885274,-0.16579584917568232,-0.5238439309894817,0.25,4.58,4.83,9.41,3.7,4.58,4.83,1.7,2.0,1,0.13353482817902726,0.8584325293070593,1.1168338728261231,0.4722871796288583,1.113851803697589,0.5500005524219482,0.7361540456946504,-0.38915514287252345,0.0528372214721938,0.0528372214721938,0.13353482817902726,1,0,0
95,1,96,24,112_lindt_extra_creamy.png,1.85,24_twix.png,1.85,0,3609,54,1947,2.0,-1228,2118,890,4,1,0.0,1.0451085762029443e-17,0.0,-1.4061725307644208,-1.3625177680377492,0.2756334751422259,0.92,4.08,5.0,9.08,3.7,4.08,5.0,1.85,1.85,1,0.4914081676988203,0.7032941203961443,1.1168338728261231,0.8157687648134849,0.7788587800291404,0.19136301348463047,0.8543047284543455,1.1052006057579662,-1.7724486112035924,1.7724486112035924,0.4914081676988203,0,1,0
96,1,97,12,102_propercorn_worcester.png,2.3,64_nestle_aero_mint.png,1.55,1,7371,40,1335,2.0,-986,3730,2744,7,2,-0.7499999999999998,-1.210307295689817,0.7499999999999998,0.6822025149253115,-2.409649447042058,2.6438492246441814,0.16999999999999993,4.83,5.0,9.83,3.85,5.0,4.83,1.55,2.3,1,0.09080368316173848,1.0558814133754963,1.3544581010870018,0.12880559444423215,1.7838378510344866,0.851256085129295,0.7361540456946504,3.3467342287037005,-1.3784083154787572,1.3784083154787572,0.09080368316173848,0,1,0
97,1,98,21,42_dairy_milk_fruit_and_nut.png,1.55,10_hula_hoops_bbq_beef.png,2.0,0,2520,58,1447,2.0,-889,1603,714,2,1,0.45,0.7261843774138904,0.45,-0.15314750335058114,-1.0633372883222325,-0.4099026628714981,0.6699999999999999,4.33,5.0,9.33,3.55,4.33,5.0,1.55,2.0,1,0.3578733395197929,0.8208232180559283,0.8792096445652439,0.12880559444423215,1.113851803697589,0.37068178295328935,0.8543047284543455,-0.38915514287252345,-1.2204665440518605,1.2204665440518605,0.3578733395197929,0,0,0
98,1,99,6,111_propercorn_sweetnsalty.png,2.0,36_nature_valley_protein_bars.png,1.4,1,1761,70,726,2.0,197,584,781,1,2,-0.6000000000000001,-0.968245836551854,0.6000000000000001,0.2645275057873658,-0.16579584917568232,-0.8877005772446998,-1.17,5.0,3.83,8.83,3.4,3.83,5.0,1.4,2.0,1,-0.6249429958778474,0.5857650227363602,0.6415854163043653,-0.2146759907403945,1.113851803697589,0.012044244015971631,0.8543047284543455,-1.1363330171877684,0.5478299896554578,0.5478299896554578,0.6249429958778474,0,0,1
99,1,100,3,41_jelly_babies_berry_mix.png,1.85,108_chilli_nuts.png,1.7,1,2593,78,1573,2.0,1099,552,1651,1,2,-0.15000000000000013,-0.2420614591379637,0.15000000000000013,-0.9884975216264741,0.4325651102553511,-0.3639484497631401,-1.25,4.58,3.33,7.91,3.55,3.33,4.58,1.7,1.85,1,-0.6676741408951362,0.15325794334835488,0.8792096445652439,0.4722871796288583,0.7788587800291404,-0.34659329492134605,0.5624030416362753,-1.1363330171877684,2.0165256373571165,2.0165256373571165,0.6676741408951362,1,0,1
100,1,101,36,23_kp_grazing_mix.png,1.55,58_walnut_whip.png,1.1,1,5772,38,1945,2.0,-1766,3436,1670,3,2,-0.45,-0.7261843774138904,0.45,-0.15314750335058114,-2.559239686899816,1.6372631046405597,-2.25,2.58,0.33,2.91,2.6500000000000004,0.33,2.58,1.1,1.55,1,-1.2018134536112453,-2.197324009847326,-0.5465357250000278,-0.9016391611096468,0.10887273269224257,-2.498418528545252,-0.8276049908307258,0.3580227314427213,-2.6484555496331845,2.6484555496331845,1.2018134536112453,0,1,0
101,1,102,28,13_fruit_pastilles.png,1.1,15_jacobs_mini_cheddars.png,1.85,0,1945,62,1639,2.0,-209,941,732,2,1,0.75,1.2103072956898175,0.75,0.6822025149253121,-0.7641568086067158,-0.7718707798208932,0.5,4.33,4.83,9.16,2.95,4.33,4.83,1.1,1.85,1,0.2670696563580545,0.7409034316472751,-0.07128726847827055,-0.9016391611096468,0.7788587800291404,0.37068178295328935,0.7361540456946504,-0.38915514287252345,-0.1132458783787698,0.1132458783787698,0.2670696563580545,0,0,0
102,1,103,18,29_mms_peanut.png,1.1,55_bassetts_licorice_allsorts.png,0.35,1,1621,98,1488,2.0,251,532,783,1,2,-0.7500000000000001,-1.2103072956898178,0.7500000000000001,0.6822025149253125,1.9284675088329348,-0.9758319448497701,-0.6699999999999999,5.0,4.33,9.33,1.4500000000000002,4.33,5.0,0.35,1.1,1,-0.3578733395197929,0.8208232180559283,-2.447529551087058,-2.6190470870327784,-0.896106338313104,0.37068178295328935,0.8543047284543455,-1.1363330171877684,0.6357563366353798,0.6357563366353798,0.3578733395197929,1,0,1
103,1,104,56,64_nestle_aero_mint.png,1.55,36_nature_valley_protein_bars.png,1.4,1,2952,68,1844,2.0,10,1226,1236,3,2,-0.15000000000000013,-0.2420614591379637,0.15000000000000013,-0.9884975216264741,-0.3153860890334407,-0.13795444283299602,-1.17,5.0,3.83,8.83,2.95,3.83,5.0,1.4,1.55,1,-0.6249429958778474,0.5857650227363602,-0.07128726847827055,-0.2146759907403945,0.10887273269224257,0.012044244015971631,0.8543047284543455,0.3580227314427213,0.2433443065953579,0.2433443065953579,0.6249429958778474,0,1,1
104,1,105,26,25_wonderful_almonds.png,1.25,113_walkers_cheese.png,2.0,0,2725,76,2763,2.0,-888,1568,680,2,1,0.75,1.2103072956898175,0.75,0.6822025149253121,0.2829748703975928,-0.28085316030693114,-0.25,4.58,4.33,8.91,3.25,4.58,4.33,1.25,2.0,1,-0.13353482817902726,0.6233743339874911,0.4039611880434867,-0.5581575759250207,1.113851803697589,0.5500005524219482,0.3886520375779001,-0.38915514287252345,-1.218838278367047,1.218838278367047,0.13353482817902726,1,0,0
105,1,106,59,30_starburst_original.png,1.1,54_milkyway_magic_stars.png,1.55,0,2591,70,1196,2.0,-652,1380,728,2,1,0.45,0.7261843774138904,0.45,-0.15314750335058114,-0.16579584917568232,-0.3652074693003554,0.16999999999999993,4.83,5.0,9.83,2.6500000000000004,4.83,5.0,1.1,1.55,1,0.09080368316173848,1.0558814133754963,-0.5465357250000278,-0.9016391611096468,0.10887273269224257,0.729319321890607,0.8543047284543455,-0.38915514287252345,-0.834567576751092,0.834567576751092,0.09080368316173848,1,0,0
106,1,107,17,60_caramel_rice_crisps.png,1.4,20_crunch.png,1.1,1,3523,64,3762,2.0,465,1266,1731,3,2,-0.2999999999999998,-0.4841229182759267,0.2999999999999998,-0.5708225124885281,-0.6145665687489574,0.22149563504196856,-2.25,3.08,0.83,3.91,2.5,0.83,3.08,1.1,1.4,1,-1.2018134536112453,-1.7272076192081898,-0.7841599532609069,-0.9016391611096468,-0.22612029097620664,-2.1397809896079347,-0.4801029827139756,0.3580227314427213,0.9842051931854408,0.9842051931854408,1.2018134536112453,0,1,1
107,1,108,20,25_wonderful_almonds.png,1.25,53_eat_natural_almond_apricot.png,1.1,0,7082,74,3691,2.0,-334,3290,2956,6,1,-0.1499999999999999,-0.2420614591379633,0.1499999999999999,-0.9884975216264744,0.1333846305398344,2.4619209015165726,-0.25,4.58,4.33,8.91,2.35,4.58,4.33,1.25,1.1,0,-0.13353482817902726,0.6233743339874911,-1.0217841815217856,-0.5581575759250207,-0.896106338313104,0.5500005524219482,0.3886520375779001,2.599556354388456,-0.3167790889804409,0.3167790889804409,0.13353482817902726,1,1,0
108,1,109,58,34_hobnob_flapjack.png,1.55,5_caramello.png,1.25,1,4066,88,1163,2.0,416,1434,1850,2,2,-0.30000000000000004,-0.4841229182759271,0.30000000000000004,-0.5708225124885274,1.1805163095441429,0.5633194393959191,1.75,1.08,2.83,3.91,2.8,2.83,1.08,1.25,1.55,1,0.9347437972531908,-1.7272076192081898,-0.30891149673914986,-0.5581575759250207,0.10887273269224257,-0.7052308338586638,-1.8701110151809768,-0.38915514287252345,0.9044201746295856,0.9044201746295856,0.9347437972531908,1,0,1
109,1,110,27,39_milkyway.png,1.25,10_hula_hoops_bbq_beef.png,2.0,0,2602,64,463,2.0,-1020,1582,562,2,1,0.75,1.2103072956898175,0.75,0.6822025149253121,-0.6145665687489574,-0.3582828618456713,0.92,4.08,5.0,9.08,3.25,4.08,5.0,1.25,2.0,1,0.4914081676988203,0.7032941203961443,0.4039611880434867,-0.5581575759250207,1.113851803697589,0.19136301348463047,0.8543047284543455,-0.38915514287252345,-1.4337693487624117,1.4337693487624117,0.4914081676988203,0,0,0
110,1,111,60,110_bombay_mix.png,1.4,57_food_doctor_mild_korma_crisps.png,1.25,1,3239,54,3138,2.0,226,1050,1276,2,2,-0.1499999999999999,-0.2420614591379633,0.1499999999999999,-0.9884975216264744,-1.3625177680377492,0.042714860757397735,-3.5,3.58,0.08,3.66,2.65,0.08,3.58,1.25,1.4,1,-1.8694875945063811,-1.844736716867974,-0.5465357250000284,-0.5581575759250207,-0.22612029097620664,-2.6777372980139114,-0.13260097459722528,-0.38915514287252345,0.5950496945150455,0.5950496945150455,1.8694875945063811,0,0,1
111,1,112,53,107_graze_scream.png,1.55,54_milkyway_magic_stars.png,1.55,0,1943,72,3236,2.0,-327,925,598,2,1,0.0,1.0451085762029443e-17,0.0,-1.4061725307644208,-0.016205609317923964,-0.7731297993581085,2.17,2.83,5.0,7.83,3.1,2.83,5.0,1.55,1.55,1,1.1590823085939563,0.11564863209722395,0.16633695978260807,0.12880559444423215,0.10887273269224257,-0.7052308338586638,0.8543047284543455,-0.38915514287252345,-0.3053812291867473,0.3053812291867473,1.1590823085939563,1,0,0
112,1,113,22,15_jacobs_mini_cheddars.png,1.85,31_beef_jerky.png,2.0,0,3627,72,2388,2.0,-857,1929,1072,4,1,0.1499999999999999,0.2420614591379633,0.1499999999999999,-0.9884975216264744,-0.016205609317923964,0.2869646509771635,0.0,4.83,4.83,9.66,3.85,4.83,4.83,1.85,2.0,1,-7.906850177798411e-18,0.9759616269668432,1.3544581010870018,0.8157687648134849,1.113851803697589,0.729319321890607,0.7361540456946504,1.1052006057579662,-1.168362042137833,1.168362042137833,7.906850177798411e-18,1,1,0
113,1,114,1,47_daim.png,1.7,62_cadbury_wispa.png,1.55,0,6245,36,2173,2.0,-894,3118,2224,6,1,-0.1499999999999999,-0.2420614591379633,0.1499999999999999,-0.9884975216264744,-2.7088299267575744,1.9350212251919752,-0.5,3.83,3.33,7.16,3.25,3.83,3.33,1.7,1.55,0,-0.2670696563580545,-0.19932934963099727,0.4039611880434867,0.4722871796288583,0.10887273269224257,0.012044244015971631,-0.30635197865560043,2.599556354388456,-1.2286078724759273,1.2286078724759273,0.2670696563580545,0,1,0
114,1,115,23,14_maltesers.png,1.85,33_walkers_smoky_bacon.png,1.55,1,4574,62,2994,2.0,-1204,2580,1376,3,2,-0.30000000000000004,-0.4841229182759271,0.30000000000000004,-0.5708225124885274,-0.7641568086067158,0.8831104018486021,-1.17,5.0,3.83,8.83,3.4000000000000004,3.83,5.0,1.55,1.85,1,-0.6249429958778474,0.5857650227363602,0.6415854163043659,0.12880559444423215,0.7788587800291404,0.012044244015971631,0.8543047284543455,0.3580227314427213,-1.7333702347680715,1.7333702347680715,0.6249429958778474,0,1,0
115,1,116,9,47_daim.png,1.7,50_nakd_rhubarb_and_custard.png,0.65,1,4327,78,2822,2.0,-239,1950,1711,4,2,-1.0499999999999998,-1.6944302139657443,1.0499999999999998,1.5175525332012048,0.4325651102553511,0.7276214890025141,-3.83,3.83,0.0,3.83,2.35,0.0,3.83,0.65,1.7,1,-2.045753567702697,-1.7648169304593209,-1.0217841815217856,-1.932083916663526,0.4438657563606913,-2.7351193042438817,0.04115002946114985,1.1052006057579662,-0.16209384892317086,0.16209384892317086,2.045753567702697,1,1,0
116,1,117,29,29_mms_peanut.png,1.1,35_mms_plain.png,2.0,0,6247,38,2440,2.0,-1084,3388,2304,5,1,0.8999999999999999,1.4523687548277808,0.8999999999999999,1.0998775240632583,-2.559239686899816,1.9362802447291905,-0.16999999999999993,5.0,4.83,9.83,3.1,5.0,4.83,1.1,2.0,1,-0.09080368316173852,1.0558814133754963,0.16633695978260807,-0.9016391611096468,1.113851803697589,0.851256085129295,0.7361540456946504,1.8523784800732108,-1.5379783525904671,1.5379783525904671,0.09080368316173852,0,1,0
117,1,118,19,18_galaxy_bar.png,1.1,117_yogurt_raisins.png,1.25,0,2353,50,2173,2.0,-290,1082,792,2,1,0.1499999999999999,0.2420614591379633,0.1499999999999999,-0.9884975216264744,-1.6616982477532658,-0.5150307942289747,-1.67,4.75,3.08,7.83,2.35,4.75,3.08,1.1,1.25,1,-0.892012652235902,0.11564863209722395,-1.0217841815217856,-0.9016391611096468,-0.5611133146446553,0.6719373156606362,-0.4801029827139756,-0.38915514287252345,-0.2451353988486527,0.2451353988486527,0.892012652235902,0,0,0
118,1,119,30,56_marshmallows.png,0.95,33_walkers_smoky_bacon.png,1.55,0,4758,52,2395,2.0,-1165,2515,1350,4,1,0.6000000000000001,0.968245836551854,0.6000000000000001,0.2645275057873658,-1.5121080078955076,0.9989401992724086,0.0,3.83,3.83,7.66,2.5,3.83,3.83,0.95,1.55,1,-7.906850177798411e-18,0.035728845688570834,-0.7841599532609069,-1.2451207462942735,0.10887273269224257,0.012044244015971631,0.04115002946114985,1.1052006057579662,-1.6698678730603502,1.6698678730603502,7.906850177798411e-18,0,1,0
119,1,120,35,40_nestle_rolo.png,1.1,41_jelly_babies_berry_mix.png,1.85,0,2715,88,1241,2.0,-928,1600,672,2,1,0.75,1.2103072956898175,0.75,0.6822025149253121,1.1805163095441429,-0.2871482579930076,0.5,4.08,4.58,8.66,2.95,4.08,4.58,1.1,1.85,1,0.2670696563580545,0.5058452363277071,-0.07128726847827055,-0.9016391611096468,0.7788587800291404,0.19136301348463047,0.5624030416362753,-0.38915514287252345,-1.2839689057595818,1.2839689057595818,0.2670696563580545,1,0,0
120,1,121,24,112_lindt_extra_creamy.png,1.85,24_twix.png,1.85,1,3454,58,1357,1.0,404,916,1320,3,2,0.0,1.0451085762029443e-17,0.0,-1.4061725307644208,-1.0633372883222325,0.17805946100804115,0.92,4.08,5.0,9.08,3.7,5.0,4.08,1.85,1.85,1,0.4914081676988203,0.7032941203961443,1.1168338728261231,0.8157687648134849,0.7788587800291404,0.851256085129295,0.214901033519525,0.3580227314427213,0.8848809864118252,0.8848809864118252,0.4914081676988203,0,1,1
121,1,122,1,47_daim.png,1.7,62_cadbury_wispa.png,1.55,1,2478,60,2166,1.0,195,902,1097,4,2,-0.1499999999999999,-0.2420614591379633,0.1499999999999999,-0.9884975216264744,-0.9137470484644742,-0.4363420731530192,-0.5,3.83,3.33,7.16,3.25,3.33,3.83,1.55,1.7,0,-0.2670696563580545,-0.19932934963099727,0.4039611880434867,0.12880559444423215,0.4438657563606913,-0.34659329492134605,0.04115002946114985,1.1052006057579662,0.5445734582858311,0.5445734582858311,0.2670696563580545,0,1,1
122,1,123,28,13_fruit_pastilles.png,1.1,15_jacobs_mini_cheddars.png,1.85,1,1728,56,1719,1.0,377,484,861,1,2,0.75,1.2103072956898175,0.75,0.6822025149253121,-1.212927528179991,-0.908474399608752,0.5,4.33,4.83,9.16,2.95,4.83,4.33,1.85,1.1,1,0.2670696563580545,0.7409034316472751,-0.07128726847827055,0.8157687648134849,-0.896106338313104,0.729319321890607,0.3886520375779001,-1.1363330171877684,0.8409178129218643,0.8409178129218643,0.2670696563580545,0,0,1
123,1,124,3,41_jelly_babies_berry_mix.png,1.85,108_chilli_nuts.png,1.7,0,2014,74,1177,1.0,-267,943,676,2,1,-0.15000000000000013,-0.2420614591379637,0.15000000000000013,-0.9884975216264741,0.1333846305398344,-0.7284346057869658,-1.25,4.58,3.33,7.91,3.55,4.58,3.33,1.85,1.7,1,-0.6676741408951362,0.15325794334835488,0.8792096445652439,0.8157687648134849,0.4438657563606913,0.5500005524219482,-0.30635197865560043,-0.38915514287252345,-0.2076852880979452,0.2076852880979452,0.6676741408951362,0,1,0
124,1,125,57,48_mentos_mint.png,0.95,40_nestle_rolo.png,1.1,1,519,88,3180,1.0,-201,201,0,0,1,0.15000000000000013,0.2420614591379637,0.15000000000000013,-0.9884975216264741,1.1805163095441429,-1.6695517098553934,0.5,3.58,4.08,7.66,2.05,4.08,3.58,1.1,0.95,1,0.2670696563580545,0.035728845688570834,-1.4970326380435437,-0.9016391611096468,-1.2310993619815531,0.19136301348463047,-0.13260097459722528,-1.8835108915030128,-0.10021975290026286,0.10021975290026286,0.2670696563580545,1,0,0
125,1,126,19,18_galaxy_bar.png,1.1,117_yogurt_raisins.png,1.25,1,5492,64,2395,1.0,385,2198,2583,5,2,0.1499999999999999,0.2420614591379633,0.1499999999999999,-0.9884975216264744,-0.6145665687489574,1.4610003694304192,-1.67,4.75,3.08,7.83,2.35,3.08,4.75,1.25,1.1,1,-0.892012652235902,0.11564863209722395,-1.0217841815217856,-0.5581575759250207,-0.896106338313104,-0.5259120643900049,0.6805537243959703,1.8523784800732108,0.8539439384003713,0.8539439384003713,0.892012652235902,0,1,1
126,1,127,33,58_walnut_whip.png,1.1,26_yorkie.png,1.7,1,3216,70,2004,1.0,-84,1330,1246,3,2,0.5999999999999999,0.9682458365518538,0.5999999999999999,0.2645275057873652,-0.16579584917568232,0.028236136079421926,3.25,0.33,3.58,3.91,2.8,3.58,0.33,1.7,1.1,1,1.7359527663273542,-1.7272076192081898,-0.30891149673914986,0.4722871796288583,-0.896106338313104,-0.16727452545268726,-2.391364027356102,0.3580227314427213,0.09028733222290128,0.09028733222290128,1.7359527663273542,0,1,1
127,1,128,17,60_caramel_rice_crisps.png,1.4,20_crunch.png,1.1,0,2185,68,2332,1.0,-327,1051,724,2,1,-0.2999999999999998,-0.4841229182759267,0.2999999999999998,-0.5708225124885281,-0.3153860890334407,-0.6207884353550588,-2.25,3.08,0.83,3.91,2.5,3.08,0.83,1.4,1.1,1,-1.2018134536112453,-1.7272076192081898,-0.7841599532609069,-0.2146759907403945,-0.896106338313104,-0.5259120643900049,-2.043862019239352,-0.38915514287252345,-0.3053812291867473,0.3053812291867473,1.2018134536112453,0,1,0
128,1,129,5,32_snickers.png,2.3,113_walkers_cheese.png,2.0,0,1467,92,2002,1.0,-118,568,450,3,1,-0.2999999999999998,-0.4841229182759267,0.2999999999999998,-0.5708225124885281,1.4796967892596598,-1.072776449215347,-0.6699999999999999,5.0,4.33,9.33,4.3,5.0,4.33,2.3,2.0,1,-0.3578733395197929,0.8208232180559283,2.067330785869637,1.8462135203673635,1.113851803697589,0.851256085129295,0.3886520375779001,0.3580227314427213,0.03492629893924674,0.03492629893924674,0.3578733395197929,1,1,0
129,1,130,9,47_daim.png,1.7,50_nakd_rhubarb_and_custard.png,0.65,0,1707,84,1641,1.0,-104,732,628,2,1,-1.0499999999999998,-1.6944302139657443,1.0499999999999998,1.5175525332012048,0.8813358298286262,-0.9216941047495124,-3.83,3.83,0.0,3.83,2.35,3.83,0.0,1.7,0.65,1,-2.045753567702697,-1.7648169304593209,-1.0217841815217856,0.4722871796288583,-1.9010854093184508,0.012044244015971631,-2.6207153527131566,-0.38915514287252345,0.0577220185266339,0.0577220185266339,2.045753567702697,1,1,1
130,1,131,59,30_starburst_original.png,1.1,54_milkyway_magic_stars.png,1.55,1,1472,80,1840,1.0,304,512,816,2,2,0.45,0.7261843774138904,0.45,-0.15314750335058114,0.5821553501131095,-1.0696289003723087,0.16999999999999993,4.83,5.0,9.83,2.6500000000000004,5.0,4.83,1.55,1.1,1,0.09080368316173848,1.0558814133754963,-0.5465357250000278,0.12880559444423215,-0.896106338313104,0.851256085129295,0.7361540456946504,-0.38915514287252345,0.7220544179304883,0.7220544179304883,0.09080368316173848,1,1,1
131,1,132,8,43_mccoys_steak_crisps.png,2.0,115_shapers_blueberry.png,1.1,0,2425,78,1365,1.0,-97,1025,928,2,1,-0.8999999999999999,-1.4523687548277808,0.8999999999999999,1.0998775240632583,0.4325651102553511,-0.4697060908892242,-3.67,5.0,1.33,6.33,3.1,5.0,1.33,2.0,1.1,1,-1.96029127766812,-0.5895259538614803,0.16633695978260807,1.1592503499981108,-0.896106338313104,0.851256085129295,-1.6963600111226014,-0.38915514287252345,0.06911987832032747,0.06911987832032747,1.96029127766812,1,1,1
132,1,133,12,102_propercorn_worcester.png,2.3,64_nestle_aero_mint.png,1.55,1,5621,46,1895,1.0,-133,2386,2253,6,2,-0.7499999999999998,-1.210307295689817,0.7499999999999998,0.6822025149253115,-1.9608787274687833,1.542207129580805,0.16999999999999993,4.83,5.0,9.83,3.85,5.0,4.83,1.55,2.3,0,0.09080368316173848,1.0558814133754963,1.3544581010870018,0.12880559444423215,1.7838378510344866,0.851256085129295,0.7361540456946504,2.599556354388456,0.01050231366704621,0.01050231366704621,0.09080368316173848,0,1,0
133,1,134,30,56_marshmallows.png,0.95,33_walkers_smoky_bacon.png,1.55,1,3216,66,2019,1.0,-518,1610,1092,3,2,0.6000000000000001,0.968245836551854,0.6000000000000001,0.2645275057873658,-0.4649763288911991,0.028236136079421926,0.0,3.83,3.83,7.66,2.5,3.83,3.83,1.55,0.95,1,-7.906850177798411e-18,0.035728845688570834,-0.7841599532609069,0.12880559444423215,-1.2310993619815531,0.012044244015971631,0.04115002946114985,0.3580227314427213,-0.6163799749861008,0.6163799749861008,7.906850177798411e-18,0,1,0
134,1,135,31,27_mars.png,0.95,109_kp_roast.png,2.3,1,3167,78,2131,1.0,333,1164,1497,3,2,1.35,2.178553132241672,1.35,2.352902551477098,0.4325651102553511,-0.0026098425823526178,0.4199999999999999,4.58,5.0,9.58,3.25,5.0,4.58,2.3,0.95,1,0.2243385113407657,0.9383523157157124,0.4039611880434867,1.8462135203673635,-1.2310993619815531,0.851256085129295,0.5624030416362753,0.3580227314427213,0.769274122790076,0.769274122790076,0.2243385113407657,1,1,1
135,1,136,18,29_mms_peanut.png,1.1,55_bassetts_licorice_allsorts.png,0.35,0,1939,92,1377,1.0,-324,932,608,2,1,-0.7500000000000001,-1.2103072956898178,0.7500000000000001,0.6822025149253125,1.4796967892596598,-0.7756478384325391,-0.6699999999999999,5.0,4.33,9.33,1.4500000000000002,5.0,4.33,1.1,0.35,1,-0.3578733395197929,0.8208232180559283,-2.447529551087058,-0.9016391611096468,-2.5710714566553485,0.851256085129295,0.3886520375779001,-0.38915514287252345,-0.3004964321323072,0.3004964321323072,0.3578733395197929,1,0,0
136,1,137,56,64_nestle_aero_mint.png,1.55,36_nature_valley_protein_bars.png,1.4,0,2066,90,2201,1.0,-213,941,728,2,1,-0.15000000000000013,-0.2420614591379637,0.15000000000000013,-0.9884975216264741,1.3301065494019009,-0.6957000978193684,-1.17,5.0,3.83,8.83,2.95,5.0,3.83,1.55,1.4,1,-0.6249429958778474,0.5857650227363602,-0.07128726847827055,0.12880559444423215,-0.22612029097620664,0.851256085129295,0.04115002946114985,-0.38915514287252345,-0.11975894111802328,0.11975894111802328,0.6249429958778474,1,0,0
137,1,138,26,25_wonderful_almonds.png,1.25,113_walkers_cheese.png,2.0,1,1561,76,3172,1.0,141,524,665,1,2,0.75,1.2103072956898175,0.75,0.6822025149253121,0.2829748703975928,-1.0136025309662284,-0.25,4.58,4.33,8.91,3.25,4.33,4.58,2.0,1.25,1,-0.13353482817902726,0.6233743339874911,0.4039611880434867,1.1592503499981108,-0.5611133146446553,0.37068178295328935,0.5624030416362753,-1.1363330171877684,0.4566471113059093,0.4566471113059093,0.13353482817902726,0,0,1
138,1,139,23,14_maltesers.png,1.85,33_walkers_smoky_bacon.png,1.55,0,2037,70,1694,1.0,-350,986,636,2,1,-0.30000000000000004,-0.4841229182759271,0.30000000000000004,-0.5708225124885274,-0.16579584917568232,-0.7139558811089901,-1.17,5.0,3.83,8.83,3.4000000000000004,5.0,3.83,1.85,1.55,1,-0.6249429958778474,0.5857650227363602,0.6415854163043659,0.8157687648134849,0.10887273269224257,0.851256085129295,0.04115002946114985,-0.38915514287252345,-0.3428313399374548,0.3428313399374548,0.6249429958778474,0,0,0
139,1,140,22,15_jacobs_mini_cheddars.png,1.85,31_beef_jerky.png,2.0,1,3620,76,1704,1.0,11,1436,1447,3,2,0.1499999999999999,0.2420614591379633,0.1499999999999999,-0.9884975216264744,0.2829748703975928,0.28255808259690995,0.0,4.83,4.83,9.66,3.85,4.83,4.83,2.0,1.85,1,-7.906850177798411e-18,0.9759616269668432,1.3544581010870018,1.1592503499981108,0.7788587800291404,0.729319321890607,0.7361540456946504,0.3580227314427213,0.2449725722801713,0.2449725722801713,7.906850177798411e-18,0,1,1
140,1,141,32,55_bassetts_licorice_allsorts.png,0.35,24_twix.png,1.85,1,1235,90,1756,1.0,-31,452,421,1,2,1.5,2.420614591379634,1.5,2.770577560615045,1.3301065494019009,-1.2188227155323204,0.6699999999999999,4.33,5.0,9.33,2.2,5.0,4.33,1.85,0.35,1,0.3578733395197929,0.8208232180559283,-1.2594084097826643,0.8157687648134849,-2.5710714566553485,0.851256085129295,0.3886520375779001,-1.1363330171877684,0.1765854135180098,0.1765854135180098,0.3578733395197929,1,0,1
141,1,142,34,110_bombay_mix.png,1.4,19_pistachios.png,1.7,1,3726,80,1524,1.0,-923,2006,1083,3,2,0.30000000000000004,0.4841229182759271,0.30000000000000004,-0.5708225124885274,0.5821553501131095,0.34928611806932025,0.75,3.58,4.33,7.91,3.1,4.33,3.58,1.7,1.4,1,0.40060448453708175,0.15325794334835488,0.16633695978260807,0.4722871796288583,-0.22612029097620664,0.37068178295328935,-0.13260097459722528,0.3580227314427213,-1.2758275773355148,1.2758275773355148,0.40060448453708175,1,1,0
142,1,143,20,25_wonderful_almonds.png,1.25,53_eat_natural_almond_apricot.png,1.1,1,1764,90,1256,1.0,516,444,960,1,2,-0.1499999999999999,-0.2420614591379633,0.1499999999999999,-0.9884975216264744,1.3301065494019009,-0.8858120479388768,-0.25,4.58,4.33,8.91,2.35,4.33,4.58,1.1,1.25,0,-0.13353482817902726,0.6233743339874911,-1.0217841815217856,-0.9016391611096468,-0.5611133146446553,0.37068178295328935,0.5624030416362753,-1.1363330171877684,1.0672467431109225,1.0672467431109225,0.13353482817902726,1,0,1
143,1,144,6,111_propercorn_sweetnsalty.png,2.0,36_nature_valley_protein_bars.png,1.4,0,4016,78,1129,1.0,-119,1754,1635,3,1,-0.6000000000000001,-0.968245836551854,0.6000000000000001,0.2645275057873658,0.4325651102553511,0.5318439509655369,-1.17,5.0,3.83,8.83,3.4,5.0,3.83,2.0,1.4,1,-0.6249429958778474,0.5857650227363602,0.6415854163043653,1.1592503499981108,-0.22612029097620664,0.851256085129295,0.04115002946114985,0.3580227314427213,0.03329803325443337,0.03329803325443337,0.6249429958778474,1,1,0
144,1,145,29,29_mms_peanut.png,1.1,35_mms_plain.png,2.0,1,2365,76,1450,1.0,-358,1004,646,2,2,0.8999999999999999,1.4523687548277808,0.8999999999999999,1.0998775240632583,0.2829748703975928,-0.5074766770056829,-0.16999999999999993,5.0,4.83,9.83,3.1,4.83,5.0,2.0,1.1,1,-0.09080368316173852,1.0558814133754963,0.16633695978260807,1.1592503499981108,-0.896106338313104,0.729319321890607,0.8543047284543455,-0.38915514287252345,-0.3558574654159617,0.3558574654159617,0.09080368316173852,0,0,0
145,1,146,53,107_graze_scream.png,1.55,54_milkyway_magic_stars.png,1.55,1,1583,90,587,1.0,124,540,664,1,2,0.0,1.0451085762029443e-17,0.0,-1.4061725307644208,1.3301065494019009,-0.9997533160568604,2.17,2.83,5.0,7.83,3.1,5.0,2.83,1.55,1.55,1,1.1590823085939563,0.11564863209722395,0.16633695978260807,0.12880559444423215,0.10887273269224257,0.851256085129295,-0.6538539867723507,-1.1363330171877684,0.4289665946640819,0.4289665946640819,1.1590823085939563,1,0,1
146,1,147,58,34_hobnob_flapjack.png,1.55,5_caramello.png,1.25,0,5406,62,1761,1.0,-1710,3098,1388,4,1,-0.30000000000000004,-0.4841229182759271,0.30000000000000004,-0.5708225124885274,-0.7641568086067158,1.4068625293301618,1.75,1.08,2.83,3.91,2.8,1.08,2.83,1.55,1.25,1,0.9347437972531908,-1.7272076192081898,-0.30891149673914986,0.12880559444423215,-0.5611133146446553,-1.960462220139276,-0.6538539867723507,1.1052006057579662,-2.557272671283636,2.557272671283636,0.9347437972531908,0,1,0
147,1,148,27,39_milkyway.png,1.25,10_hula_hoops_bbq_beef.png,2.0,1,2418,80,1029,1.0,123,832,955,1,2,0.75,1.2103072956898175,0.75,0.6822025149253121,0.5821553501131095,-0.4741126592694778,0.92,4.08,5.0,9.08,3.25,5.0,4.08,2.0,1.25,1,0.4914081676988203,0.7032941203961443,0.4039611880434867,1.1592503499981108,-0.5611133146446553,0.851256085129295,0.214901033519525,-1.1363330171877684,0.4273383289792686,0.4273383289792686,0.4914081676988203,1,0,1
148,1,149,60,110_bombay_mix.png,1.4,57_food_doctor_mild_korma_crisps.png,1.25,0,5198,54,1864,1.0,-1619,3091,1472,5,1,-0.1499999999999999,-0.2420614591379633,0.1499999999999999,-0.9884975216264744,-1.3625177680377492,1.2759244974597719,-3.5,3.58,0.08,3.66,2.65,3.58,0.08,1.4,1.25,1,-1.8694875945063811,-1.844736716867974,-0.5465357250000284,-0.2146759907403945,-0.5611133146446553,-0.16727452545268726,-2.5651150314144773,1.8523784800732108,-2.4091004939656195,2.4091004939656195,1.8694875945063811,0,1,0
149,1,150,35,40_nestle_rolo.png,1.1,41_jelly_babies_berry_mix.png,1.85,1,4101,88,1372,1.0,-161,1622,1461,2,2,0.75,1.2103072956898175,0.75,0.6822025149253121,1.1805163095441429,0.5853522812971866,0.5,4.08,4.58,8.66,2.95,4.58,4.08,1.85,1.1,1,0.2670696563580545,0.5058452363277071,-0.07128726847827055,0.8157687648134849,-0.896106338313104,0.5500005524219482,0.214901033519525,-0.38915514287252345,-0.035089125507728115,0.035089125507728115,0.2670696563580545,1,0,0
150,1,151,21,42_dairy_milk_fruit_and_nut.png,1.55,10_hula_hoops_bbq_beef.png,2.0,1,3167,70,2147,1.0,-16,1268,1252,3,2,0.45,0.7261843774138904,0.45,-0.15314750335058114,-0.16579584917568232,-0.0026098425823526178,0.6699999999999999,4.33,5.0,9.33,3.55,5.0,4.33,2.0,1.55,1,0.3578733395197929,0.8208232180559283,0.8792096445652439,1.1592503499981108,0.10887273269224257,0.851256085129295,0.3886520375779001,0.3580227314427213,0.20100939879021035,0.20100939879021035,0.3578733395197929,0,1,1
151,1,152,10,14_maltesers.png,1.85,48_mentos_mint.png,0.95,0,1675,86,1834,1.0,-16,763,747,2,1,-0.9000000000000001,-1.4523687548277813,0.9000000000000001,1.099877524063259,1.030926069686385,-0.9418384173449572,-1.42,5.0,3.58,8.58,2.8,5.0,3.58,1.85,0.95,1,-0.7584778240568747,0.4682359250765761,-0.30891149673914986,0.8157687648134849,-1.2310993619815531,0.851256085129295,-0.13260097459722528,-0.38915514287252345,0.20100939879021035,0.20100939879021035,0.7584778240568747,1,0,1
152,1,153,25,52_discos_salt_vinegar.png,1.7,45_gb_ginger.png,2.0,1,1655,96,792,1.0,206,518,724,1,2,0.30000000000000004,0.4841229182759271,0.30000000000000004,-0.5708225124885274,1.7788772689751764,-0.95442861271711,0.25,4.58,4.83,9.41,3.7,4.83,4.58,2.0,1.7,1,0.13353482817902726,0.8584325293070593,1.1168338728261231,1.1592503499981108,0.4438657563606913,0.729319321890607,0.5624030416362753,-1.1363330171877684,0.5624843808187782,0.5624843808187782,0.13353482817902726,1,0,1
153,1,154,36,23_kp_grazing_mix.png,1.55,58_walnut_whip.png,1.1,0,1870,86,1446,1.0,-498,1128,630,1,1,-0.45,-0.7261843774138904,0.45,-0.15314750335058114,1.030926069686385,-0.8190840124664666,-2.25,2.58,0.33,2.91,2.6500000000000004,2.58,0.33,1.55,1.1,1,-1.2018134536112453,-2.197324009847326,-0.5465357250000278,0.12880559444423215,-0.896106338313104,-0.8845496033273226,-2.391364027356102,-1.1363330171877684,-0.5838146612898334,0.5838146612898334,1.2018134536112453,1,0,0
154,1,155,7,62_cadbury_wispa.png,1.55,30_starburst_original.png,1.1,0,2637,90,2037,1.0,-464,1322,858,3,1,-0.45,-0.7261843774138904,0.45,-0.15314750335058114,1.3301065494019009,-0.3362500199444038,1.5,3.33,4.83,8.16,2.6500000000000004,3.33,4.83,1.55,1.1,1,0.8012089690741635,0.2707870410081389,-0.5465357250000278,0.12880559444423215,-0.896106338313104,-0.34659329492134605,0.7361540456946504,0.3580227314427213,-0.5284536280061788,0.5284536280061788,0.8012089690741635,1,1,0
155,1,156,4,111_propercorn_sweetnsalty.png,2.0,44_walkers_french_fries.png,2.0,1,3613,68,1735,1.0,-1,1596,1595,4,2,0.0,1.0451085762029443e-17,0.0,-1.4061725307644208,-0.3153860890334407,0.2781515142166565,-0.6699999999999999,5.0,4.33,9.33,4.0,4.33,5.0,2.0,2.0,1,-0.3578733395197929,0.8208232180559283,1.5920823293478803,1.1592503499981108,1.113851803697589,0.37068178295328935,0.8543047284543455,1.1052006057579662,0.2254333840624109,0.2254333840624109,0.3578733395197929,0,1,1
156,1,157,2,109_kp_roast.png,2.3,107_graze_scream.png,1.55,0,1854,84,1447,1.0,-151,789,638,2,1,-0.7499999999999998,-1.210307295689817,0.7499999999999998,0.6822025149253115,0.8813358298286262,-0.8291561687641889,-2.17,5.0,2.83,7.83,3.85,5.0,2.83,2.3,1.55,1,-1.1590823085939563,0.11564863209722395,1.3544581010870018,1.8462135203673635,0.10887273269224257,0.851256085129295,-0.6538539867723507,-0.38915514287252345,-0.018806468659594427,0.018806468659594427,1.1590823085939563,1,0,0
157,1,158,55,45_gb_ginger.png,2.0,23_kp_grazing_mix.png,1.55,0,1999,68,2203,1.0,-254,916,662,2,1,-0.45,-0.7261843774138904,0.45,-0.15314750335058114,-0.3153860890334407,-0.7378772523160805,-2.25,4.83,2.58,7.41,3.55,4.83,2.58,2.0,1.55,1,-1.2018134536112453,-0.08180025197121323,0.8792096445652439,1.1592503499981108,0.10887273269224257,0.729319321890607,-0.8276049908307258,-0.38915514287252345,-0.1865178341953714,0.1865178341953714,1.2018134536112453,0,0,0
158,1,159,54,11_lindt_orange.png,2.0,2_maynards_winegums.png,1.1,0,1979,82,1999,1.0,-270,1060,790,1,1,-0.8999999999999999,-1.4523687548277808,0.8999999999999999,1.0998775240632583,0.7317455899708678,-0.7504674476882334,-0.6699999999999999,4.75,4.08,8.83,3.1,4.75,4.08,2.0,1.1,1,-0.3578733395197929,0.5857650227363602,0.16633695978260807,1.1592503499981108,-0.896106338313104,0.6719373156606362,0.214901033519525,-1.1363330171877684,-0.2125700851523853,0.2125700851523853,0.3578733395197929,1,0,0
159,1,160,11,32_snickers.png,2.3,18_galaxy_bar.png,1.1,0,1987,90,3510,1.0,-67,934,867,2,1,-1.1999999999999995,-1.936491673103708,1.1999999999999995,1.9352275423391512,1.3301065494019009,-0.7454313695393723,-0.25,5.0,4.75,9.75,3.4,5.0,4.75,2.3,1.1,1,-0.13353482817902726,1.0182721021243657,0.6415854163043653,1.8462135203673635,-0.896106338313104,0.851256085129295,0.6805537243959703,-0.38915514287252345,0.11796784886472855,0.11796784886472855,0.13353482817902726,1,0,1
160,1,161,18,55_bassetts_licorice_allsorts.png,0.35,29_mms_peanut.png,1.1,0,1573,96,1570,2.0,-537,859,322,2,1,0.7500000000000001,1.2103072956898178,0.7500000000000001,0.6822025149253125,1.7788772689751764,-1.0060484137429369,0.6699999999999999,4.33,5.0,9.33,1.4500000000000002,4.33,5.0,0.35,1.1,1,0.3578733395197929,0.8208232180559283,-2.447529551087058,-2.6190470870327784,-0.896106338313104,0.37068178295328935,0.8543047284543455,-0.38915514287252345,-0.6473170229975547,0.6473170229975547,0.3578733395197929,1,0,0
161,1,162,24,24_twix.png,1.85,112_lindt_extra_creamy.png,1.85,1,1712,64,1959,2.0,184,556,740,1,2,0.0,1.0451085762029443e-17,0.0,-1.4061725307644208,-0.6145665687489574,-0.9185465559064744,-0.92,5.0,4.08,9.08,3.7,4.08,5.0,1.85,1.85,1,-0.4914081676988203,0.7032941203961443,1.1168338728261231,0.8157687648134849,0.7788587800291404,0.19136301348463047,0.8543047284543455,-1.1363330171877684,0.526662535752884,0.526662535752884,0.4914081676988203,0,0,1
162,1,163,47,34_hobnob_flapjack.png,1.55,51_smarties.png,1.7,0,2040,54,2211,2.0,-125,859,734,2,1,0.1499999999999999,0.2420614591379633,0.1499999999999999,-0.9884975216264744,-1.3625177680377492,-0.7120673518031672,3.92,1.08,5.0,6.08,3.25,1.08,5.0,1.55,1.7,1,2.093826105847147,-0.7070550515212645,0.4039611880434867,0.12880559444423215,0.4438657563606913,-1.960462220139276,0.8543047284543455,-0.38915514287252345,0.023528439145553158,0.023528439145553158,2.093826105847147,0,0,0
163,1,164,22,31_beef_jerky.png,2.0,15_jacobs_mini_cheddars.png,1.85,1,2372,56,1728,2.0,262,846,1108,3,2,-0.1499999999999999,-0.2420614591379633,0.1499999999999999,-0.9884975216264744,-1.212927528179991,-0.5030701086254294,0.0,4.83,4.83,9.66,3.85,4.83,4.83,1.85,2.0,1,-7.906850177798411e-18,0.9759616269668432,1.3544581010870018,0.8157687648134849,1.113851803697589,0.729319321890607,0.7361540456946504,0.3580227314427213,0.6536672591683268,0.6536672591683268,7.906850177798411e-18,0,1,1
164,1,165,45,43_mccoys_steak_crisps.png,2.0,51_smarties.png,1.7,0,4185,50,3388,2.0,-22,1808,1786,4,1,-0.30000000000000004,-0.4841229182759271,0.30000000000000004,-0.5708225124885274,-1.6616982477532658,0.6382311018602287,0.0,5.0,5.0,10.0,3.7,5.0,5.0,2.0,1.7,0,-7.906850177798411e-18,1.1358011997841495,1.1168338728261231,1.1592503499981108,0.4438657563606913,0.851256085129295,0.8543047284543455,1.1052006057579662,0.19123980468133006,0.19123980468133006,7.906850177798411e-18,0,1,1
165,1,166,20,53_eat_natural_almond_apricot.png,1.1,25_wonderful_almonds.png,1.25,1,3429,64,3669,2.0,273,1314,1587,3,2,0.1499999999999999,0.2420614591379633,0.1499999999999999,-0.9884975216264744,-0.6145665687489574,0.16232171679285004,0.25,4.33,4.58,8.91,2.35,4.58,4.33,1.25,1.1,0,0.13353482817902726,0.6233743339874911,-1.0217841815217856,-0.5581575759250207,-0.896106338313104,0.5500005524219482,0.3886520375779001,0.3580227314427213,0.6715781817012739,0.6715781817012739,0.13353482817902726,0,1,1
166,1,167,56,36_nature_valley_protein_bars.png,1.4,64_nestle_aero_mint.png,1.55,0,2044,80,1964,2.0,-161,875,714,2,1,0.15000000000000013,0.2420614591379637,0.15000000000000013,-0.9884975216264741,0.5821553501131095,-0.7095493127287366,1.17,3.83,5.0,8.83,2.95,3.83,5.0,1.4,1.55,1,0.6249429958778474,0.5857650227363602,-0.07128726847827055,-0.2146759907403945,0.10887273269224257,0.012044244015971631,0.8543047284543455,-0.38915514287252345,-0.035089125507728115,0.035089125507728115,0.6249429958778474,1,0,0
167,1,168,14,31_beef_jerky.png,2.0,116_boots_caramels.png,0.95,1,2542,70,2892,2.0,20,1016,1036,3,2,-1.05,-1.6944302139657446,1.05,1.5175525332012054,-0.16579584917568232,-0.39605344796213,-3.75,4.83,1.08,5.91,2.95,1.08,4.83,0.95,2.0,1,-2.0030224226854085,-0.7869748379299175,-0.07128726847827055,-1.2451207462942735,1.113851803697589,-1.960462220139276,0.7361540456946504,0.3580227314427213,0.2596269634434916,0.2596269634434916,2.0030224226854085,0,1,1
168,1,169,26,113_walkers_cheese.png,2.0,25_wonderful_almonds.png,1.25,1,1576,82,1612,2.0,173,530,703,1,2,-0.75,-1.2103072956898175,0.75,0.6822025149253121,0.7317455899708678,-1.0041598844371138,0.25,4.33,4.58,8.91,3.25,4.58,4.33,1.25,2.0,1,0.13353482817902726,0.6233743339874911,0.4039611880434867,-0.5581575759250207,1.113851803697589,0.5500005524219482,0.3886520375779001,-1.1363330171877684,0.508751613219937,0.508751613219937,0.13353482817902726,1,0,1
169,1,170,37,115_shapers_blueberry.png,1.1,13_fruit_pastilles.png,1.1,0,2497,76,1610,2.0,6,1006,1012,2,1,0.0,1.0451085762029443e-17,0.0,-1.4061725307644208,0.2829748703975928,-0.4243813875494739,3.0,1.33,4.33,5.66,2.2,1.33,4.33,1.1,1.1,1,1.6024179381483268,-0.9045039355897015,-1.2594084097826643,-0.9016391611096468,-0.896106338313104,-1.781143450670617,0.3886520375779001,-0.38915514287252345,0.2368312438561045,0.2368312438561045,1.6024179381483268,1,0,1
170,1,171,28,15_jacobs_mini_cheddars.png,1.85,13_fruit_pastilles.png,1.1,1,2511,76,1333,2.0,518,768,1286,3,2,-0.75,-1.2103072956898175,0.75,0.6822025149253121,0.2829748703975928,-0.4155682507889669,-0.5,4.83,4.33,9.16,2.95,4.33,4.83,1.1,1.85,1,-0.2670696563580545,0.7409034316472751,-0.07128726847827055,-0.9016391611096468,0.7788587800291404,0.37068178295328935,0.7361540456946504,0.3580227314427213,1.0705032744805494,1.0705032744805494,0.2670696563580545,1,1,1
171,1,172,53,54_milkyway_magic_stars.png,1.55,107_graze_scream.png,1.55,1,1564,78,1576,2.0,221,504,725,1,2,0.0,1.0451085762029443e-17,0.0,-1.4061725307644208,0.4325651102553511,-1.0117140016604056,-2.17,5.0,2.83,7.83,3.1,2.83,5.0,1.55,1.55,1,-1.1590823085939563,0.11564863209722395,0.16633695978260807,0.12880559444423215,0.10887273269224257,-0.7052308338586638,0.8543047284543455,-1.1363330171877684,0.5869083660909787,0.5869083660909787,1.1590823085939563,1,0,1
172,1,173,30,33_walkers_smoky_bacon.png,1.55,56_marshmallows.png,0.95,1,1616,76,4288,2.0,233,502,735,1,2,-0.6000000000000001,-0.968245836551854,0.6000000000000001,0.2645275057873658,0.2829748703975928,-0.978979493692808,0.0,3.83,3.83,7.66,2.5,3.83,3.83,0.95,1.55,1,-7.906850177798411e-18,0.035728845688570834,-0.7841599532609069,-1.2451207462942735,0.10887273269224257,0.012044244015971631,0.04115002946114985,-1.1363330171877684,0.6064475543087391,0.6064475543087391,7.906850177798411e-18,1,0,1
173,1,174,25,45_gb_ginger.png,2.0,52_discos_salt_vinegar.png,1.7,1,2987,66,1358,2.0,-156,1326,1170,3,2,-0.30000000000000004,-0.4841229182759271,0.30000000000000004,-0.5708225124885274,-0.4649763288911991,-0.1159216009317285,-0.25,4.83,4.58,9.41,3.7,4.58,4.83,1.7,2.0,1,-0.13353482817902726,0.8584325293070593,1.1168338728261231,0.4722871796288583,1.113851803697589,0.5500005524219482,0.7361540456946504,0.3580227314427213,-0.026947797083661268,0.026947797083661268,0.13353482817902726,0,1,0
174,1,175,41,59_crunchie.png,1.7,11_lindt_orange.png,2.0,0,3625,60,2051,2.0,-348,1730,1382,4,1,0.30000000000000004,0.4841229182759271,0.30000000000000004,-0.5708225124885274,-0.9137470484644742,0.2857056314399482,-0.25,5.0,4.75,9.75,3.7,5.0,4.75,1.7,2.0,1,-0.13353482817902726,1.0182721021243657,1.1168338728261231,0.4722871796288583,1.113851803697589,0.851256085129295,0.6805537243959703,1.1052006057579662,-0.3395748085678281,0.3395748085678281,0.13353482817902726,0,1,0
175,1,176,48,53_eat_natural_almond_apricot.png,1.1,44_walkers_french_fries.png,2.0,0,2226,78,1982,2.0,35,905,940,3,1,0.8999999999999999,1.4523687548277808,0.8999999999999999,1.0998775240632583,0.4325651102553511,-0.5949785348421454,0.0,4.33,4.33,8.66,3.1,4.33,4.33,1.1,2.0,1,-7.906850177798411e-18,0.5058452363277071,0.16633695978260807,-0.9016391611096468,1.113851803697589,0.37068178295328935,0.3886520375779001,0.3580227314427213,0.2840509487156921,0.2840509487156921,7.906850177798411e-18,1,1,1
176,1,177,52,38_milkybar.png,0.8,42_dairy_milk_fruit_and_nut.png,1.55,0,2179,76,2943,2.0,-64,904,840,2,1,0.75,1.2103072956898175,0.75,0.6822025149253121,0.2829748703975928,-0.6245654939667047,0.0,4.33,4.33,8.66,2.35,4.33,4.33,0.8,1.55,1,-7.906850177798411e-18,0.5058452363277071,-1.0217841815217856,-1.5886023314788995,0.10887273269224257,0.37068178295328935,0.3886520375779001,-0.38915514287252345,0.12285264591916865,0.12285264591916865,7.906850177798411e-18,1,0,1
177,1,178,46,104_graze_sriracha.png,0.65,112_lindt_extra_creamy.png,1.85,0,1847,88,1817,2.0,-365,923,558,2,1,1.2000000000000002,1.9364916731037085,1.2000000000000002,1.9352275423391525,1.1805163095441429,-0.8335627371444424,3.75,0.33,4.08,4.41,2.5,0.33,4.08,0.65,1.85,1,2.0030224226854085,-1.492149423888622,-0.7841599532609069,-1.932083916663526,0.7788587800291404,-2.498418528545252,0.214901033519525,-0.38915514287252345,-0.3672553252096553,0.3672553252096553,2.0030224226854085,1,0,0
178,1,179,39,39_milkyway.png,1.25,50_nakd_rhubarb_and_custard.png,0.65,1,1569,90,1861,2.0,-274,730,456,1,2,-0.6,-0.968245836551854,0.6,0.26452750578736545,1.3301065494019009,-1.0085664528173672,-4.08,4.08,0.0,4.08,1.9,0.0,4.08,0.65,1.25,1,-2.1792883958817244,-1.6472878327995368,-1.7346568663044222,-1.932083916663526,-0.5611133146446553,-2.7351193042438817,0.214901033519525,-1.1363330171877684,-0.2190831478916388,0.2190831478916388,2.1792883958817244,1,0,0
179,1,180,54,2_maynards_winegums.png,1.1,11_lindt_orange.png,2.0,0,2371,64,2150,2.0,-536,1154,618,3,1,0.8999999999999999,1.4523687548277808,0.8999999999999999,1.0998775240632583,-0.6145665687489574,-0.5036996183940371,0.6699999999999999,4.08,4.75,8.83,3.1,4.08,4.75,1.1,2.0,1,0.3578733395197929,0.5857650227363602,0.16633695978260807,-0.9016391611096468,1.113851803697589,0.19136301348463047,0.6805537243959703,0.3580227314427213,-0.6456887573127413,0.6456887573127413,0.3578733395197929,0,1,0
180,1,181,50,20_crunch.png,1.1,63_kitkat.png,1.85,0,2482,84,3314,2.0,315,994,1309,2,1,0.75,1.2103072956898175,0.75,0.6822025149253121,0.8813358298286262,-0.4338240340785886,4.17,0.83,5.0,5.83,2.95,0.83,5.0,1.1,1.85,1,2.2273609340261737,-0.8245841491810485,-0.07128726847827055,-0.9016391611096468,0.7788587800291404,-2.1397809896079347,0.8543047284543455,-0.38915514287252345,0.7399653404634353,0.7399653404634353,2.2273609340261737,1,1,1
181,1,182,40,27_mars.png,0.95,2_maynards_winegums.png,1.1,0,2747,76,1848,2.0,-514,1408,894,2,1,0.15000000000000013,0.2420614591379637,0.15000000000000013,-0.9884975216264741,0.2829748703975928,-0.267003945397563,-0.5,4.58,4.08,8.66,2.05,4.58,4.08,0.95,1.1,1,-0.2670696563580545,0.5058452363277071,-1.4970326380435437,-1.2451207462942735,-0.896106338313104,0.5500005524219482,0.214901033519525,-0.38915514287252345,-0.6098669122468472,0.6098669122468472,0.2670696563580545,1,0,0
182,1,183,21,10_hula_hoops_bbq_beef.png,2.0,42_dairy_milk_fruit_and_nut.png,1.55,1,2918,54,2532,2.0,486,950,1436,3,2,-0.45,-0.7261843774138904,0.45,-0.15314750335058114,-1.3625177680377492,-0.15935777496565592,-0.6699999999999999,5.0,4.33,9.33,3.55,4.33,5.0,1.55,2.0,1,-0.3578733395197929,0.8208232180559283,0.8792096445652439,0.12880559444423215,1.113851803697589,0.37068178295328935,0.8543047284543455,0.3580227314427213,1.0183987725665216,1.0183987725665216,0.3578733395197929,0,1,1
183,1,184,43,35_mms_plain.png,2.0,103_nakd_berry.png,1.85,1,3706,40,1985,2.0,255,1582,1837,3,2,-0.1499999999999999,-0.2420614591379633,0.1499999999999999,-0.9884975216264744,-2.409649447042058,0.33669592269716736,-2.25,4.83,2.58,7.41,3.85,2.58,4.83,1.85,2.0,1,-1.2018134536112453,-0.08180025197121323,1.3544581010870018,0.8157687648134849,1.113851803697589,-0.8845496033273226,0.7361540456946504,0.3580227314427213,0.6422693993746332,0.6422693993746332,1.2018134536112453,0,1,1
184,1,185,29,35_mms_plain.png,2.0,29_mms_peanut.png,1.1,1,3625,52,1531,2.0,481,1236,1717,3,2,-0.8999999999999999,-1.4523687548277808,0.8999999999999999,1.0998775240632583,-1.5121080078955076,0.2857056314399482,0.16999999999999993,4.83,5.0,9.83,3.1,5.0,4.83,1.1,2.0,1,0.09080368316173848,1.0558814133754963,0.16633695978260807,-0.9016391611096468,1.113851803697589,0.851256085129295,0.7361540456946504,0.3580227314427213,1.0102574441424546,1.0102574441424546,0.09080368316173848,0,1,1
185,1,186,38,38_milkybar.png,0.8,56_marshmallows.png,0.95,0,3938,50,1407,2.0,482,1557,2039,5,1,0.1499999999999999,0.2420614591379633,0.1499999999999999,-0.9884975216264744,-1.6616982477532658,0.4827421890141407,-0.5,4.33,3.83,8.16,1.75,4.33,3.83,0.8,0.95,1,-0.2670696563580545,0.2707870410081389,-1.9722810945653009,-1.5886023314788995,-1.2310993619815531,0.37068178295328935,0.04115002946114985,1.8523784800732108,1.011885709827268,1.011885709827268,0.2670696563580545,0,1,1
186,1,187,16,104_graze_sriracha.png,0.65,116_boots_caramels.png,0.95,0,2329,52,3320,2.0,194,869,1063,1,1,0.29999999999999993,0.4841229182759269,0.29999999999999993,-0.5708225124885278,-1.5121080078955076,-0.5301390286755581,0.75,0.33,1.08,1.41,1.6,0.33,1.08,0.65,0.95,1,0.40060448453708175,-2.9024985958060308,-2.20990532282618,-1.932083916663526,-1.2310993619815531,-2.498418528545252,-1.8701110151809768,-1.1363330171877684,0.5429451926010177,0.5429451926010177,0.40060448453708175,0,0,1
187,1,188,51,5_caramello.png,1.25,59_crunchie.png,1.7,0,2028,78,1503,2.0,-8,796,788,2,1,0.45,0.7261843774138904,0.45,-0.15314750335058114,0.4325651102553511,-0.7196214690264588,2.17,2.83,5.0,7.83,2.95,2.83,5.0,1.25,1.7,1,1.1590823085939563,0.11564863209722395,-0.07128726847827055,-0.5581575759250207,0.4438657563606913,-0.7052308338586638,0.8543047284543455,-0.38915514287252345,0.2140355242687173,0.2140355242687173,1.1590823085939563,1,0,1
188,1,189,32,24_twix.png,1.85,55_bassetts_licorice_allsorts.png,0.35,1,1665,100,2512,2.0,426,446,872,1,2,-1.5,-2.420614591379634,1.5,2.770577560615045,2.0780577486906933,-0.9481335150310336,-0.6699999999999999,5.0,4.33,9.33,2.2,4.33,5.0,0.35,1.85,1,-0.3578733395197929,0.8208232180559283,-1.2594084097826643,-2.6190470870327784,0.7788587800291404,0.37068178295328935,0.8543047284543455,-1.1363330171877684,0.9207028314777194,0.9207028314777194,0.3578733395197929,1,0,1
189,1,190,31,109_kp_roast.png,2.3,27_mars.png,0.95,1,1580,74,4224,2.0,209,496,705,1,2,-1.35,-2.178553132241672,1.35,2.352902551477098,0.1333846305398344,-1.0016418453626832,-0.4199999999999999,5.0,4.58,9.58,3.25,4.58,5.0,0.95,2.3,1,-0.2243385113407657,0.9383523157157124,0.4039611880434867,-1.2451207462942735,1.7838378510344866,0.5500005524219482,0.8543047284543455,-1.1363330171877684,0.5673691778732183,0.5673691778732183,0.2243385113407657,1,0,1
190,1,191,44,26_yorkie.png,1.7,102_propercorn_worcester.png,2.3,0,4189,58,3312,2.0,264,1700,1964,3,1,0.5999999999999999,0.9682458365518538,0.5999999999999999,0.2645275057873652,-1.0633372883222325,0.6407491409346593,1.25,3.58,4.83,8.41,4.0,3.58,4.83,1.7,2.3,1,0.6676741408951362,0.38831613866792297,1.5920823293478803,0.4722871796288583,1.7838378510344866,-0.16727452545268726,0.7361540456946504,0.3580227314427213,0.6569237905379536,0.6569237905379536,0.6676741408951362,0,1,1
191,1,192,42,19_pistachios.png,1.7,63_kitkat.png,1.85,0,2626,70,3155,2.0,-223,1046,823,4,2,0.15000000000000013,0.2420614591379637,0.15000000000000013,-0.9884975216264741,-0.16579584917568232,-0.3431746273990879,0.6699999999999999,4.33,5.0,9.33,3.55,4.33,5.0,1.7,1.85,1,0.3578733395197929,0.8208232180559283,0.8792096445652439,0.4722871796288583,0.7788587800291404,0.37068178295328935,0.8543047284543455,1.1052006057579662,-0.13604159796615695,0.13604159796615695,0.3578733395197929,1,1,0
192,1,193,15,108_chilli_nuts.png,1.7,57_food_doctor_mild_korma_crisps.png,1.25,1,3783,58,2508,2.0,52,1526,1578,4,2,-0.45,-0.7261843774138904,0.45,-0.15314750335058114,-1.0633372883222325,0.3851681748799559,-3.25,3.33,0.08,3.41,2.95,0.08,3.33,1.25,1.7,1,-1.7359527663273542,-1.962265814527758,-0.07128726847827055,-0.5581575759250207,0.4438657563606913,-2.6777372980139114,-0.30635197865560043,1.1052006057579662,0.3117314653575194,0.3117314653575194,1.7359527663273542,0,1,1
193,1,194,55,23_kp_grazing_mix.png,1.55,45_gb_ginger.png,2.0,0,2920,70,1445,2.0,-328,1372,1044,3,2,0.45,0.7261843774138904,0.45,-0.15314750335058114,-0.16579584917568232,-0.15809875542844062,2.25,2.58,4.83,7.41,3.55,2.58,4.83,1.55,2.0,1,1.2018134536112453,-0.08180025197121323,0.8792096445652439,0.12880559444423215,1.113851803697589,-0.8845496033273226,0.7361540456946504,0.3580227314427213,-0.30700949487156065,0.30700949487156065,1.2018134536112453,0,1,0
194,1,195,19,117_yogurt_raisins.png,1.25,18_galaxy_bar.png,1.1,0,4843,70,1909,2.0,-462,2248,1786,3,2,-0.1499999999999999,-0.2420614591379633,0.1499999999999999,-0.9884975216264744,-0.16579584917568232,1.0524485296040582,1.67,3.08,4.75,7.83,2.35,3.08,4.75,1.25,1.1,0,0.892012652235902,0.11564863209722395,-1.0217841815217856,-0.5581575759250207,-0.896106338313104,-0.5259120643900049,0.6805537243959703,0.3580227314427213,-0.5251970966365521,0.5251970966365521,0.892012652235902,0,1,0
195,1,196,49,60_caramel_rice_crisps.png,1.4,52_discos_salt_vinegar.png,1.7,0,5275,66,2347,2.0,-90,2420,2330,7,1,0.30000000000000004,0.4841229182759271,0.30000000000000004,-0.5708225124885274,-0.4649763288911991,1.3243967496425604,1.5,3.08,4.58,7.66,3.1,3.08,4.58,1.4,1.7,1,0.8012089690741635,0.035728845688570834,0.16633695978260807,-0.2146759907403945,0.4438657563606913,-0.5259120643900049,0.5624030416362753,3.3467342287037005,0.08051773811402106,0.08051773811402106,0.8012089690741635,0,1,1
196,1,197,17,20_crunch.png,1.1,60_caramel_rice_crisps.png,1.4,0,5630,62,2406,2.0,-92,2514,2422,5,2,0.2999999999999998,0.4841229182759267,0.2999999999999998,-0.5708225124885281,-0.7641568086067158,1.547872717498274,2.25,0.83,3.08,3.91,2.5,0.83,3.08,1.1,1.4,1,1.2018134536112453,-1.7272076192081898,-0.7841599532609069,-0.9016391611096468,-0.22612029097620664,-2.1397809896079347,-0.4801029827139756,1.8523784800732108,0.07726120674439432,0.07726120674439432,1.2018134536112453,0,1,0
197,1,198,27,10_hula_hoops_bbq_beef.png,2.0,39_milkyway.png,1.25,1,1871,80,2333,2.0,-268,860,592,2,1,-0.75,-1.2103072956898175,0.75,0.6822025149253121,0.5821553501131095,-0.8184545026978589,-0.92,5.0,4.08,9.08,3.25,4.08,5.0,1.25,2.0,1,-0.4914081676988203,0.7032941203961443,0.4039611880434867,-0.5581575759250207,1.113851803697589,0.19136301348463047,0.8543047284543455,-0.38915514287252345,-0.20931355378275854,0.20931355378275854,0.4914081676988203,1,0,0
198,1,199,13,103_nakd_berry.png,1.85,117_yogurt_raisins.png,1.25,1,4173,74,2035,2.0,-338,1918,1580,5,2,-0.6000000000000001,-0.968245836551854,0.6000000000000001,0.2645275057873658,0.1333846305398344,0.630676984636937,0.5,2.58,3.08,5.66,3.1,3.08,2.58,1.25,1.85,1,0.2670696563580545,-0.9045039355897015,0.16633695978260807,-0.5581575759250207,0.7788587800291404,-0.5259120643900049,-0.8276049908307258,1.8523784800732108,-0.3232921517196944,0.3232921517196944,0.2670696563580545,1,1,0
199,1,200,23,33_walkers_smoky_bacon.png,1.55,14_maltesers.png,1.85,0,2828,74,1462,2.0,-19,1166,1147,3,2,0.30000000000000004,0.4841229182759271,0.30000000000000004,-0.5708225124885274,0.1333846305398344,-0.21601365414034385,1.17,3.83,5.0,8.83,3.4000000000000004,3.83,5.0,1.55,1.85,1,0.6249429958778474,0.5857650227363602,0.6415854163043659,0.12880559444423215,0.7788587800291404,0.012044244015971631,0.8543047284543455,0.3580227314427213,0.19612460173577026,0.19612460173577026,0.6249429958778474,1,1,1
200,1,201,28,15_jacobs_mini_cheddars.png,1.85,13_fruit_pastilles.png,1.1,0,2166,80,1946,1.0,53,938,991,3,1,-0.75,-1.2103072956898175,0.75,0.6822025149253121,0.5821553501131095,-0.632749120958604,-0.5,4.83,4.33,9.16,2.95,4.83,4.33,1.85,1.1,1,-0.2670696563580545,0.7409034316472751,-0.07128726847827055,0.8157687648134849,-0.896106338313104,0.729319321890607,0.3886520375779001,0.3580227314427213,0.3133597310423328,0.3133597310423328,0.2670696563580545,1,1,1
201,1,202,21,10_hula_hoops_bbq_beef.png,2.0,42_dairy_milk_fruit_and_nut.png,1.55,0,2263,76,2455,1.0,131,845,976,3,1,-0.45,-0.7261843774138904,0.45,-0.15314750335058114,0.2829748703975928,-0.5716866734036625,-0.6699999999999999,5.0,4.33,9.33,3.55,5.0,4.33,2.0,1.55,1,-0.3578733395197929,0.8208232180559283,0.8792096445652439,1.1592503499981108,0.10887273269224257,0.851256085129295,0.3886520375779001,0.3580227314427213,0.4403644544577756,0.4403644544577756,0.3578733395197929,0,1,1
202,1,203,52,38_milkybar.png,0.8,42_dairy_milk_fruit_and_nut.png,1.55,1,1491,94,1404,1.0,331,410,741,1,2,0.75,1.2103072956898175,0.75,0.6822025149253121,1.6292870291174182,-1.0576682147687635,0.0,4.33,4.33,8.66,2.35,4.33,4.33,1.55,0.8,1,-7.906850177798411e-18,0.5058452363277071,-1.0217841815217856,0.12880559444423215,-1.566092385650002,0.37068178295328935,0.3886520375779001,-1.1363330171877684,0.7660175914204492,0.7660175914204492,7.906850177798411e-18,1,0,1
203,1,204,20,53_eat_natural_almond_apricot.png,1.1,25_wonderful_almonds.png,1.25,0,1697,88,919,1.0,18,753,771,2,1,0.1499999999999999,0.2420614591379633,0.1499999999999999,-0.9884975216264744,1.1805163095441429,-0.9279892024355888,0.25,4.33,4.58,8.91,2.35,4.33,4.58,1.1,1.25,0,0.13353482817902726,0.6233743339874911,-1.0217841815217856,-0.9016391611096468,-0.5611133146446553,0.37068178295328935,0.5624030416362753,-0.38915514287252345,0.2563704320738649,0.2563704320738649,0.13353482817902726,1,0,1
204,1,205,47,34_hobnob_flapjack.png,1.55,51_smarties.png,1.7,1,2250,88,1017,1.0,56,862,918,3,2,0.1499999999999999,0.2420614591379633,0.1499999999999999,-0.9884975216264744,1.1805163095441429,-0.579870300395562,3.92,1.08,5.0,6.08,3.25,5.0,1.08,1.7,1.55,1,2.093826105847147,-0.7070550515212645,0.4039611880434867,0.4722871796288583,0.10887273269224257,0.851256085129295,-1.8701110151809768,0.3580227314427213,0.3182445280967729,0.3182445280967729,2.093826105847147,1,1,1
205,1,206,15,108_chilli_nuts.png,1.7,57_food_doctor_mild_korma_crisps.png,1.25,0,2017,70,1626,1.0,-535,1189,654,2,1,-0.45,-0.7261843774138904,0.45,-0.15314750335058114,-0.16579584917568232,-0.7265460764811429,-3.25,3.33,0.08,3.41,2.95,3.33,0.08,1.7,1.25,1,-1.7359527663273542,-1.962265814527758,-0.07128726847827055,0.4722871796288583,-0.5611133146446553,-0.34659329492134605,-2.5651150314144773,-0.38915514287252345,-0.6440604916279279,0.6440604916279279,1.7359527663273542,0,0,0
206,1,207,42,19_pistachios.png,1.7,63_kitkat.png,1.85,1,2098,82,2107,1.0,62,810,872,3,2,0.15000000000000013,0.2420614591379637,0.15000000000000013,-0.9884975216264741,0.7317455899708678,-0.6755557852239238,0.6699999999999999,4.33,5.0,9.33,3.55,5.0,4.33,1.85,1.7,1,0.3578733395197929,0.8208232180559283,0.8792096445652439,0.8157687648134849,0.4438657563606913,0.851256085129295,0.3886520375779001,0.3580227314427213,0.3280141222056531,0.3280141222056531,0.3578733395197929,1,1,1
207,1,208,26,113_walkers_cheese.png,2.0,25_wonderful_almonds.png,1.25,0,1744,90,2094,1.0,-241,783,542,2,1,-0.75,-1.2103072956898175,0.75,0.6822025149253121,1.3301065494019009,-0.8984022433110297,0.25,4.33,4.58,8.91,3.25,4.33,4.58,2.0,1.25,1,0.13353482817902726,0.6233743339874911,0.4039611880434867,1.1592503499981108,-0.5611133146446553,0.37068178295328935,0.5624030416362753,-0.38915514287252345,-0.1653503802927976,0.1653503802927976,0.13353482817902726,1,0,0
