parcode,trial,rt,choice,item_left,item_right
0,40,2009,-1,1.1,0.95
0,41,3371,-1,2.0,1.7
0,42,1700,1,1.1,2.3
0,43,7466,1,1.25,1.4
0,44,1889,1,2.0,2.3
0,45,2227,1,1.7,1.85
0,46,4259,-1,1.85,0.65
0,47,3505,-1,1.55,0.8
0,48,2548,-1,1.55,1.1
0,49,3226,1,1.1,2.0
0,50,4604,-1,1.85,1.1
0,51,6333,-1,0.95,2.0
0,52,5716,-1,0.95,0.8
0,53,3562,-1,2.0,1.1
0,54,2447,-1,1.85,1.1
0,55,2120,1,1.25,1.85
0,56,6932,1,2.0,2.0
0,57,4274,1,1.25,1.7
0,58,6854,-1,1.7,1.4
0,59,6698,-1,1.1,1.1
0,60,2913,-1,1.1,0.95
0,61,4513,-1,1.7,1.55
0,62,2110,1,1.85,2.0
0,63,3385,-1,1.7,1.4
0,64,2456,1,1.4,2.0
0,65,2136,-1,1.85,1.7
0,66,7010,1,1.1,1.55
0,67,4784,-1,0.95,0.65
0,68,2697,1,1.1,1.55
0,69,4654,1,1.25,1.55
0,70,1916,1,1.55,2.3
0,71,2033,-1,1.7,1.25
0,72,1441,1,0.95,1.85
0,73,3579,1,0.65,1.25
0,74,7377,1,1.7,2.0
0,75,2921,-1,2.3,1.7
0,76,6398,-1,1.55,2.3
0,77,2919,1,0.65,1.7
0,78,4737,-1,1.55,1.7
0,79,3459,-1,1.7,1.1
0,120,3454,1,1.85,1.85
0,121,2478,1,1.7,1.55
0,122,1728,1,1.1,1.85
0,123,2014,-1,1.85,1.7
0,124,519,1,0.95,1.1
0,125,5492,1,1.1,1.25
0,126,3216,1,1.1,1.7
0,127,2185,-1,1.4,1.1
0,128,1467,-1,2.3,2.0
0,129,1707,-1,1.7,0.65
0,130,1472,1,1.1,1.55
0,131,2425,-1,2.0,1.1
0,132,5621,1,2.3,1.55
0,133,3216,1,0.95,1.55
0,134,3167,1,0.95,2.3
0,135,1939,-1,1.1,0.35
0,136,2066,-1,1.55,1.4
0,137,1561,1,1.25,2.0
0,138,2037,-1,1.85,1.55
0,139,3620,1,1.85,2.0
0,140,1235,1,0.35,1.85
0,141,3726,1,1.4,1.7
0,142,1764,1,1.25,1.1
0,143,4016,-1,2.0,1.4
0,144,2365,1,1.1,2.0
0,145,1583,1,1.55,1.55
0,146,5406,-1,1.55,1.25
0,147,2418,1,1.25,2.0
0,148,5198,-1,1.4,1.25
0,149,4101,1,1.1,1.85
0,150,3167,1,1.55,2.0
0,151,1675,-1,1.85,0.95
0,152,1655,1,1.7,2.0
0,153,1870,-1,1.55,1.1
0,154,2637,-1,1.55,1.1
0,155,3613,1,2.0,2.0
0,156,1854,-1,2.3,1.55
0,157,1999,-1,2.0,1.55
0,158,1979,-1,2.0,1.1
0,159,1987,-1,2.3,1.1
0,200,2166,-1,1.85,1.1
0,201,2263,-1,2.0,1.55
0,202,1491,1,0.8,1.55
0,203,1697,-1,1.1,1.25
0,204,2250,1,1.55,1.7
0,205,2017,-1,1.7,1.25
0,206,2098,1,1.7,1.85
0,207,1744,-1,2.0,1.25
0,208,2002,-1,1.85,1.85
0,209,2099,-1,2.0,1.1
0,210,4340,-1,1.4,1.7
0,211,2085,1,1.55,1.85
0,212,2755,1,1.55,2.0
0,213,2265,-1,2.0,1.85
0,214,1866,1,1.25,1.7
0,215,2166,-1,1.85,0.35
0,216,4828,1,1.25,1.1
0,217,2376,-1,2.0,0.95
0,218,2106,-1,2.0,1.85
0,219,2328,-1,1.85,1.25
0,220,4574,-1,2.0,1.7
0,221,1708,1,1.1,1.4
0,222,1739,1,1.1,1.85
0,223,1466,1,0.35,1.1
0,224,4432,-1,1.7,2.3
0,225,1759,1,1.1,2.0
0,226,1533,1,1.1,2.0
0,227,1556,-1,1.25,0.65
0,228,1545,-1,1.55,1.55
0,229,1291,1,1.7,2.0
0,230,1544,1,1.4,1.55
0,231,4190,1,0.65,0.95
0,232,1712,1,0.65,1.85
0,233,2958,1,1.55,0.95
0,234,1618,-1,2.3,0.95
0,235,1474,-1,2.0,1.7
0,236,1715,-1,2.0,1.25
0,237,1819,1,1.1,1.1
0,238,1454,1,0.95,1.1
0,239,3480,-1,0.8,0.95
1,40,3113,1,0.5,0.8
1,41,4273,1,0.05,0.5
1,42,2400,-1,0.5,0.2
1,43,2710,1,0.35,0.5
1,44,3446,-1,0.5,0.2
1,45,3993,-1,0.65,0.5
1,46,2389,-1,0.65,0.05
1,47,1404,-1,0.2,0.0
1,48,3249,1,0.05,0.2
1,49,1822,-1,0.35,0.0
1,50,1994,-1,0.2,0.0
1,51,2700,-1,0.65,0.2
1,52,1886,-1,0.5,0.0
1,53,3326,1,0.65,0.65
1,54,3299,1,0.2,0.8
1,55,2521,1,0.0,0.65
1,56,2952,-1,0.05,0.5
1,57,2415,-1,0.35,0.2
1,58,3498,1,0.2,0.2
1,59,2270,1,0.0,0.2
1,60,2513,1,0.35,0.5
1,61,2738,1,0.65,0.35
1,62,3314,-1,0.35,0.5
1,63,3086,1,0.05,0.2
1,64,2393,1,0.5,0.5
1,65,2560,1,0.05,0.2
1,66,3130,-1,0.65,0.35
1,67,4404,-1,0.65,0.5
1,68,1777,-1,0.65,0.2
1,69,2386,-1,0.5,0.35
1,70,2762,-1,0.5,0.35
1,71,1868,-1,0.65,0.2
1,72,2631,-1,0.65,0.65
1,73,3073,-1,0.65,0.5
1,74,2059,1,0.0,0.35
1,75,1611,1,0.2,0.65
1,76,1721,-1,0.5,0.0
1,77,2535,1,0.2,0.0
1,78,2177,1,0.65,0.5
1,79,2577,1,0.0,0.65
1,120,2362,1,0.2,0.65
1,121,1504,1,0.0,0.2
1,122,1769,-1,0.5,0.05
1,123,1998,1,0.35,0.05
1,124,1194,1,0.35,0.5
1,125,1135,1,0.05,0.65
1,126,1716,-1,0.65,0.5
1,127,1320,-1,0.5,0.65
1,128,1241,1,0.2,0.5
1,129,1278,1,0.8,0.5
1,130,1160,-1,0.35,0.2
1,131,1596,-1,0.2,0.35
1,132,1158,-1,0.65,0.2
1,133,1504,1,0.5,0.5
1,134,1069,1,0.0,0.5
1,135,1009,1,0.2,0.65
1,136,1124,1,0.65,0.65
1,137,1174,-1,0.5,0.2
1,138,1020,-1,0.65,0.0
1,139,1150,1,0.0,0.35
1,140,1254,-1,0.65,0.5
1,141,1898,-1,0.5,0.0
1,142,1184,1,0.2,0.35
1,143,1012,-1,0.8,0.0
1,144,2056,-1,0.35,0.65
1,145,1025,-1,0.2,0.0
1,146,1123,1,0.35,0.5
1,147,1224,1,0.0,0.2
1,148,1927,-1,0.5,0.2
1,149,1103,-1,0.8,0.5
1,150,1177,1,0.0,0.5
1,151,1173,1,0.5,0.65
1,152,1127,1,0.35,0.35
1,153,1540,1,0.2,0.05
1,154,1574,1,0.35,0.5
1,155,1212,-1,0.2,0.05
1,156,1247,1,0.2,0.35
1,157,1096,1,0.2,0.65
1,158,1163,-1,0.65,0.2
1,159,1068,-1,0.35,0.0
1,200,1829,1,0.5,0.8
1,201,1958,1,0.05,0.5
1,202,1335,-1,0.5,0.2
1,203,1560,-1,0.35,0.5
1,204,1322,-1,0.5,0.2
1,205,1545,-1,0.65,0.5
1,206,1385,-1,0.65,0.05
1,207,2884,-1,0.2,0.0
1,208,1358,1,0.05,0.2
1,209,1663,-1,0.35,0.0
1,210,1382,-1,0.2,0.0
1,211,3400,-1,0.65,0.2
1,212,1058,-1,0.5,0.0
1,213,882,1,0.65,0.65
1,214,1057,1,0.2,0.8
1,215,1229,1,0.0,0.65
1,216,1375,-1,0.05,0.5
1,217,819,-1,0.35,0.2
1,218,1925,1,0.2,0.2
1,219,1062,1,0.0,0.2
1,220,1320,1,0.35,0.5
1,221,1068,1,0.65,0.35
1,222,1506,-1,0.35,0.5
1,223,883,1,0.05,0.2
1,224,959,1,0.5,0.5
1,225,1317,1,0.05,0.2
1,226,1176,-1,0.65,0.35
1,227,1196,-1,0.65,0.5
1,228,1045,-1,0.65,0.2
1,229,1060,-1,0.5,0.35
1,230,1112,-1,0.5,0.35
1,231,1471,-1,0.65,0.2
1,232,1188,-1,0.65,0.65
1,233,1411,-1,0.65,0.5
1,234,1345,1,0.0,0.35
1,235,992,1,0.2,0.65
1,236,816,-1,0.5,0.0
1,237,1740,1,0.2,0.0
1,238,1032,1,0.65,0.5
1,239,1124,1,0.0,0.65
2,40,4138,-1,0.95,0.0
2,41,1615,-1,1.1,0.0
2,42,1521,-1,0.95,0.5
2,43,1833,-1,2.3,0.0
2,44,1921,1,0.5,2.6
2,45,1472,-1,2.0,0.05
2,46,3630,-1,1.1,0.2
2,47,2730,-1,1.25,0.35
2,48,5770,-1,2.75,2.15
2,49,2833,-1,0.05,0.2
2,50,1616,-1,0.65,0.0
2,51,1776,1,0.0,1.4
2,52,1554,1,0.2,1.95
2,53,2881,-1,0.0,0.0
2,54,2592,-1,0.65,0.0
2,55,1966,1,0.95,2.3
2,56,4961,1,1.25,0.35
2,57,4289,1,0.0,0.0
2,58,2382,1,2.0,3.0
2,59,1627,-1,3.0,0.0
2,60,1506,1,0.0,2.0
2,61,3071,1,0.0,2.75
2,62,1683,1,0.5,2.9
2,63,1869,-1,2.3,0.95
2,64,1236,-1,0.35,0.05
2,65,5758,1,3.0,2.3
2,66,3641,-1,1.1,1.25
2,67,1984,-1,0.0,0.0
2,68,2387,1,0.35,3.0
2,69,1672,1,0.95,1.95
2,70,3178,-1,0.35,1.1
2,71,4034,-1,1.7,1.25
2,72,2266,1,0.2,1.25
2,73,9110,1,2.75,2.15
2,74,1914,-1,0.95,0.65
2,75,2310,1,2.6,2.0
2,76,3482,-1,0.35,0.5
2,77,2185,1,0.0,2.75
2,78,1643,1,0.5,0.65
2,79,6848,1,1.1,2.3
2,120,3014,-1,1.95,0.95
2,121,1248,-1,1.95,0.2
2,122,1962,-1,2.0,0.0
2,123,1814,1,0.35,2.85
2,124,2794,1,0.0,0.0
2,125,4583,-1,0.35,0.5
2,126,5363,1,0.2,0.2
2,127,3832,1,0.35,1.25
2,128,1041,-1,2.15,0.0
2,129,2045,1,0.05,2.75
2,130,1479,-1,2.6,0.5
2,131,1750,-1,0.35,1.25
2,132,2726,-1,2.9,1.1
2,133,2387,1,0.2,0.05
2,134,1629,1,0.5,2.6
2,135,3360,-1,2.75,0.0
2,136,1625,-1,2.0,2.6
2,137,1991,1,0.0,0.65
2,138,5695,1,0.0,0.0
2,139,1470,1,0.2,1.1
2,140,1108,1,0.0,2.3
2,141,1263,1,0.0,0.5
2,142,1223,1,0.65,2.3
2,143,944,1,0.0,2.15
2,144,966,-1,3.0,0.35
2,145,1471,-1,2.9,0.5
2,146,1325,-1,2.3,0.95
2,147,2047,-1,0.5,1.7
2,148,1318,1,0.0,0.65
2,149,1410,-1,2.6,2.75
2,150,1109,-1,1.1,0.65
2,151,2158,1,0.0,0.35
2,152,3687,-1,1.25,1.7
2,153,2117,-1,1.1,1.4
2,154,1499,-1,2.15,2.75
2,155,871,1,1.25,2.15
2,156,1230,-1,2.15,0.5
2,157,1466,-1,1.25,0.2
2,158,1764,1,2.3,2.85
2,159,2222,1,0.0,0.35
2,200,1351,-1,0.35,0.0
2,201,1418,1,0.5,0.95
2,202,1152,1,0.0,1.1
2,203,2764,1,1.25,1.1
2,204,2555,1,2.75,2.6
2,205,1966,1,0.0,3.0
2,206,1839,1,0.65,1.1
2,207,1619,-1,2.15,1.25
2,208,4705,1,2.3,3.0
2,209,1404,-1,0.65,0.5
2,210,2197,-1,2.3,0.0
2,211,2248,-1,2.85,2.3
2,212,2783,-1,2.3,1.1
2,213,1276,1,0.5,0.35
2,214,1925,-1,0.35,0.0
2,215,1836,-1,3.0,2.0
2,216,2134,-1,2.3,0.65
2,217,1352,1,0.0,2.15
2,218,1285,-1,2.85,0.35
2,219,1344,1,0.0,0.95
2,220,1834,1,1.7,0.5
2,221,2169,1,1.1,0.35
2,222,1192,-1,2.15,0.0
2,223,1448,1,1.1,2.9
2,224,1618,1,0.05,2.0
2,225,2337,-1,0.2,0.2
2,226,1817,-1,2.75,0.0
2,227,953,-1,2.75,0.05
2,228,1666,1,0.65,0.95
2,229,1120,-1,2.6,0.5
2,230,1819,1,0.95,2.3
2,231,1672,1,1.4,1.1
2,232,4290,-1,0.5,0.0
2,233,1477,1,2.15,2.75
2,234,1372,1,0.0,2.3
2,235,1507,1,0.5,2.15
2,236,2567,-1,1.4,0.0
2,237,1513,1,0.0,0.0
2,238,1648,1,0.05,0.35
2,239,1125,1,0.5,0.35
3,40,3916,-1,0.0,0.0
3,41,2427,-1,2.45,0.65
3,42,3746,1,0.05,0.35
3,43,3621,-1,1.1,0.35
3,44,2167,1,1.55,0.95
3,45,2378,-1,2.45,1.55
3,46,3483,-1,1.1,0.65
3,47,2759,1,0.0,0.95
3,48,11236,1,0.05,0.65
3,49,2620,1,0.05,0.95
3,50,5035,-1,0.95,1.1
3,51,6939,-1,1.4,1.25
3,52,2210,1,0.0,0.95
3,53,1773,1,0.05,1.4
3,54,1790,1,0.0,0.65
3,55,4010,1,1.55,0.2
3,56,2599,1,0.0,1.25
3,57,8879,-1,2.45,0.65
3,58,2397,-1,1.4,0.65
3,59,2316,-1,0.65,0.05
3,60,1897,-1,1.7,0.65
3,61,7320,1,0.5,0.65
3,62,3510,-1,0.05,0.0
3,63,2683,1,0.05,1.55
3,64,1943,1,0.05,0.65
3,65,1684,-1,0.65,0.2
3,66,3811,1,0.95,1.4
3,67,1739,1,0.5,1.25
3,68,2891,-1,0.8,0.35
3,69,4217,1,0.65,2.3
3,70,6103,1,0.95,0.95
3,71,5579,-1,0.8,0.8
3,72,4646,1,0.8,0.35
3,73,4253,1,0.05,0.95
3,74,2616,1,1.25,0.95
3,75,5075,-1,0.95,0.8
3,76,2093,-1,0.65,0.8
3,77,4899,1,1.1,1.55
3,78,4563,1,1.1,0.95
3,79,2354,-1,0.95,0.0
3,120,3952,1,0.0,0.05
3,121,1354,-1,1.25,0.5
3,122,1708,1,0.95,1.1
3,123,1662,-1,0.95,1.25
3,124,3300,-1,1.4,0.95
3,125,2187,1,0.35,1.55
3,126,1537,-1,0.95,0.0
3,127,4601,1,0.05,0.95
3,128,1768,-1,0.0,0.05
3,129,2069,-1,1.7,1.4
3,130,3884,1,0.0,0.0
3,131,1877,1,0.05,1.1
3,132,1563,-1,1.4,0.0
3,133,1706,1,0.0,1.1
3,134,4268,-1,0.95,0.95
3,135,1762,1,0.65,1.7
3,136,1773,1,0.35,1.1
3,137,7000,-1,0.95,0.05
3,138,3982,-1,0.65,0.0
3,139,1869,-1,0.95,0.0
3,140,2105,-1,0.95,0.0
3,141,1507,-1,0.95,0.05
3,142,2742,1,0.35,0.8
3,143,2430,1,0.05,0.65
3,144,2550,1,0.0,0.5
3,145,2499,1,1.1,0.5
3,146,3249,-1,0.95,1.1
3,147,2161,1,0.0,1.55
3,148,2270,1,0.8,0.95
3,149,2322,-1,0.65,0.0
3,150,1885,1,0.0,0.05
3,151,2328,1,0.05,0.95
3,152,1789,1,0.0,0.95
3,153,3082,1,1.1,0.95
3,154,2710,1,0.95,2.3
3,155,3318,-1,2.45,1.1
3,156,1596,-1,1.55,0.05
3,157,2020,1,0.95,1.55
3,158,1498,-1,1.25,0.0
3,159,3854,1,0.35,0.8
3,200,3897,-1,0.95,0.8
3,201,1515,-1,0.95,1.55
3,202,2095,1,0.8,0.65
3,203,1847,-1,1.55,0.95
3,204,3787,1,0.65,0.5
3,205,3488,-1,1.55,1.1
3,206,4082,1,0.8,0.95
3,207,2037,1,0.2,0.65
3,208,1874,1,0.8,0.8
3,209,1663,1,0.0,1.4
3,210,5986,-1,0.8,0.35
3,211,7087,1,1.25,1.4
3,212,1695,1,0.0,0.65
3,213,1739,1,0.65,1.4
3,214,3157,-1,2.3,0.65
3,215,1509,-1,1.1,0.0
3,216,4811,1,0.65,2.45
3,217,1924,-1,0.95,0.05
3,218,1294,-1,0.65,0.05
3,219,1835,-1,0.2,1.55
3,220,2191,1,0.0,0.95
3,221,1573,1,1.4,1.7
3,222,2013,-1,2.3,0.95
3,223,1253,-1,1.55,0.35
3,224,2332,-1,0.5,0.0
3,225,3469,1,1.55,2.45
3,226,7005,-1,0.35,0.8
3,227,4749,-1,0.95,0.05
3,228,2096,1,1.1,2.45
3,229,1272,-1,1.55,0.0
3,230,3300,-1,0.35,0.05
3,231,1336,-1,1.1,0.05
3,232,1260,-1,1.4,0.05
3,233,1340,-1,0.05,0.0
3,234,3912,-1,0.65,0.05
3,235,1344,-1,0.05,0.0
3,236,3005,1,0.65,1.1
3,237,1676,-1,1.1,0.95
3,238,2666,-1,0.5,1.1
3,239,1883,1,0.65,2.45
4,40,1944,-1,0.05,0.0
4,41,3591,1,0.0,0.0
4,42,1669,-1,0.8,0.65
4,43,1473,-1,0.6,0.0
4,44,1379,1,0.0,0.65
4,45,2554,1,0.0,0.0
4,46,1539,-1,0.5,0.0
4,47,1370,1,0.0,0.0
4,48,1375,1,0.0,0.95
4,49,3063,1,0.05,0.2
4,50,1369,1,0.0,0.05
4,51,1598,1,0.0,0.95
4,52,1833,-1,0.0,0.0
4,53,1252,1,0.35,0.8
4,54,1773,-1,0.65,0.0
4,55,1471,1,0.0,0.8
4,56,3207,-1,0.5,0.0
4,57,1903,-1,0.0,0.0
4,58,2550,-1,1.1,0.05
4,59,1988,-1,0.2,0.0
4,60,1531,-1,1.1,0.0
4,61,4111,1,0.5,0.65
4,62,5355,1,0.0,0.0
4,63,1387,-1,1.1,0.0
4,64,1688,-1,0.6,0.35
4,65,3569,1,0.0,0.05
4,66,1619,1,0.5,1.1
4,67,4123,1,0.0,0.0
4,68,1834,1,0.0,0.0
4,69,1416,1,0.05,0.2
4,70,1288,1,0.0,0.8
4,71,1361,1,0.0,1.1
4,72,1465,1,0.05,0.0
4,73,1650,-1,0.05,0.0
4,74,2292,1,0.0,0.0
4,75,1348,1,0.0,0.5
4,76,1407,-1,0.8,0.5
4,77,1486,1,0.0,0.8
4,78,1610,1,0.5,0.95
4,79,2680,-1,0.0,0.0
4,120,2420,-1,0.0,0.0
4,121,2161,-1,0.0,0.0
4,122,1342,-1,0.8,0.0
4,123,1253,1,0.0,0.0
4,124,1262,-1,0.8,0.0
4,125,1895,1,0.0,0.0
4,126,2956,-1,0.65,0.5
4,127,1518,-1,0.8,0.0
4,128,1020,1,0.0,1.1
4,129,1407,-1,0.0,0.0
4,130,2155,-1,0.5,0.0
4,131,1575,1,0.0,0.65
4,132,1830,-1,0.0,0.0
4,133,1061,-1,0.0,0.0
4,134,1095,1,0.5,0.8
4,135,1536,1,0.0,0.0
4,136,1046,-1,1.1,0.0
4,137,1951,-1,0.8,0.35
4,138,1306,-1,0.0,0.0
4,139,1983,1,0.0,0.2
4,140,1847,-1,0.0,0.2
4,141,1761,1,0.05,0.95
4,142,2454,-1,0.05,0.0
4,143,2720,1,0.35,0.0
4,144,1076,-1,0.2,0.05
4,145,1871,1,0.0,0.8
4,146,926,-1,0.65,0.05
4,147,1366,-1,0.05,0.0
4,148,1282,1,0.0,1.1
4,149,1485,1,0.0,0.05
4,150,2086,-1,0.8,0.05
4,151,1351,-1,0.65,0.0
4,152,1516,-1,0.0,0.5
4,153,1085,1,0.0,0.0
4,154,1580,-1,0.35,0.0
4,155,1235,-1,0.8,0.0
4,156,1850,1,0.8,0.8
4,157,1398,1,0.05,1.1
4,158,1486,1,0.0,0.5
4,159,4333,-1,0.0,0.0
4,200,2015,-1,0.5,0.0
4,201,1236,-1,0.95,0.0
4,202,1346,1,0.0,0.0
4,203,1235,1,0.65,0.8
4,204,1382,1,0.0,0.0
4,205,1491,1,0.0,0.0
4,206,2413,-1,0.65,0.0
4,207,1509,-1,0.8,0.0
4,208,1114,1,0.0,0.5
4,209,1071,1,0.0,0.6
4,210,1696,-1,0.0,0.0
4,211,2318,1,0.2,0.05
4,212,1504,-1,1.1,0.0
4,213,1920,-1,1.1,0.5
4,214,1381,-1,0.95,0.0
4,215,4618,1,0.0,0.05
4,216,1067,1,0.35,0.6
4,217,1600,-1,0.0,0.0
4,218,903,1,0.0,0.0
4,219,1515,1,0.0,0.05
4,220,1737,-1,0.2,0.0
4,221,943,1,0.0,1.1
4,222,1317,1,0.05,0.65
4,223,1197,1,0.0,0.8
4,224,2430,1,0.0,0.0
4,225,1257,-1,0.8,0.0
4,226,2005,1,0.0,0.35
4,227,1129,1,0.0,0.8
4,228,1162,1,0.0,0.65
4,229,1801,-1,0.0,0.0
4,230,2430,1,0.0,0.0
4,231,1379,1,0.05,0.8
4,232,1529,-1,0.95,0.5
4,233,2327,-1,0.0,0.0
4,234,1531,-1,0.0,0.35
4,235,1360,-1,0.0,0.05
4,236,1619,-1,0.05,0.0
4,237,1415,-1,0.0,0.0
4,238,1552,-1,0.8,0.8
4,239,1627,-1,0.95,0.05
5,40,2028,-1,1.4,0.95
5,41,2197,1,0.5,0.65
5,42,1864,1,0.5,0.8
5,43,2066,1,0.35,0.65
5,44,1702,1,0.35,0.95
5,45,2343,1,0.2,0.95
5,46,3469,-1,1.1,0.8
5,47,4105,-1,0.8,0.5
5,48,2482,1,0.0,0.5
5,49,3178,1,0.35,0.95
5,50,1763,-1,1.1,0.65
5,51,2708,1,0.95,0.95
5,52,3466,-1,1.4,0.0
5,53,1868,-1,0.65,0.65
5,54,2141,-1,0.65,0.0
5,55,1801,1,0.5,0.65
5,56,4713,1,0.95,0.65
5,57,1717,-1,1.1,0.2
5,58,1870,-1,0.65,0.8
5,59,1629,-1,1.1,0.5
5,60,2029,1,0.5,0.8
5,61,3458,1,0.95,1.1
5,62,2113,1,0.95,0.8
5,63,2422,1,0.65,0.8
5,64,2205,-1,0.65,1.1
5,65,2222,-1,0.8,0.65
5,66,3793,1,0.5,0.65
5,67,2187,1,0.8,1.1
5,68,2330,-1,0.95,0.35
5,69,3852,1,0.95,0.65
5,70,3695,-1,0.65,0.95
5,71,3260,-1,0.8,0.8
5,72,24903,-1,0.2,0.8
5,73,4399,1,0.65,0.8
5,74,3612,1,0.0,0.5
5,75,2359,1,0.8,0.95
5,76,4328,1,0.8,1.1
5,77,1866,1,0.5,0.5
5,78,2742,-1,1.25,1.1
5,79,2290,1,0.95,0.5
5,120,4077,1,0.95,0.95
5,121,1560,-1,1.1,0.95
5,122,2605,-1,0.5,0.0
5,123,1836,1,0.2,0.35
5,124,1968,-1,1.1,0.8
5,125,3258,-1,0.65,0.5
5,126,3518,-1,0.95,0.8
5,127,1889,-1,0.95,0.35
5,128,1837,-1,0.65,0.5
5,129,2012,1,0.8,0.65
5,130,2183,-1,0.5,0.0
5,131,1414,1,0.35,1.1
5,132,1778,1,0.0,1.1
5,133,2422,-1,1.25,0.8
5,134,1579,-1,1.1,0.95
5,135,2238,-1,0.5,0.95
5,136,1383,1,0.8,0.95
5,137,2886,-1,0.5,0.8
5,138,1683,1,0.95,0.65
5,139,3159,-1,0.65,0.35
5,140,1700,1,0.35,0.5
5,141,1632,-1,0.8,0.65
5,142,3465,-1,0.8,0.5
5,143,2207,-1,0.95,0.35
5,144,2594,1,0.8,0.8
5,145,1828,-1,1.1,0.5
5,146,1993,-1,0.8,0.95
5,147,2343,-1,0.65,0.65
5,148,1632,1,0.65,1.1
5,149,1456,-1,0.65,0.95
5,150,2478,-1,0.65,0.5
5,151,1991,1,0.2,1.1
5,152,1905,1,0.35,0.65
5,153,2195,-1,1.1,0.65
5,154,1754,-1,0.95,0.0
5,155,2658,1,0.65,0.8
5,156,1755,1,0.95,1.4
5,157,2863,1,0.95,1.1
5,158,1514,-1,0.65,0.95
5,159,2971,1,0.5,0.8
5,200,1826,-1,1.1,0.95
5,201,1908,-1,1.1,0.8
5,202,2450,-1,0.0,0.65
5,203,2532,-1,0.8,0.5
5,204,1653,-1,0.5,0.35
5,205,2581,-1,0.5,0.8
5,206,1539,-1,1.1,0.95
5,207,1602,1,0.65,0.65
5,208,2941,1,1.1,0.65
5,209,2425,-1,0.65,0.65
5,210,1935,-1,0.95,0.35
5,211,1552,1,0.65,0.8
5,212,2729,1,0.95,1.1
5,213,1878,1,0.8,0.65
5,214,1452,1,0.5,1.1
5,215,1693,1,0.8,0.5
5,216,1529,1,0.8,0.2
5,217,2201,1,0.8,0.8
5,218,3317,-1,0.35,0.2
5,219,1205,-1,1.1,0.0
5,220,1749,1,0.8,0.5
5,221,1554,1,1.1,1.25
5,222,1827,-1,0.95,0.2
5,223,1525,1,0.65,1.1
5,224,1791,1,0.35,0.95
5,225,1359,-1,0.65,0.35
5,226,2219,-1,0.8,0.65
5,227,1546,1,0.35,0.65
5,228,1451,1,0.0,0.95
5,229,1997,1,0.95,0.8
5,230,1996,-1,0.65,0.35
5,231,1720,1,0.0,1.4
5,232,1503,-1,0.5,0.5
5,233,2481,1,0.8,0.8
5,234,1808,1,0.8,1.25
5,235,1768,1,0.5,1.1
5,236,2272,1,0.35,0.95
5,237,1588,-1,1.1,0.35
5,238,1521,1,0.95,1.1
5,239,1654,1,0.8,1.1
6,40,1928,-1,0.95,1.4
6,41,4194,1,0.65,0.8
6,42,2641,1,0.8,0.8
6,43,2684,-1,0.95,0.65
6,44,1506,1,0.65,0.95
6,45,2147,-1,1.4,0.65
6,46,2007,-1,0.95,0.0
6,47,1439,-1,0.95,0.8
6,48,2377,-1,0.65,0.95
6,49,1529,-1,0.8,0.5
6,50,1766,-1,0.65,0.65
6,51,4347,-1,0.65,0.65
6,52,1309,-1,0.95,0.95
6,53,1520,-1,0.95,0.8
6,54,2229,1,0.65,0.65
6,55,4567,1,0.95,0.5
6,56,1624,1,0.95,0.95
6,57,2488,1,0.95,1.1
6,58,1411,-1,0.65,0.8
6,59,1473,1,0.0,0.95
6,60,2715,1,0.65,0.35
6,61,1698,-1,0.65,0.95
6,62,1593,-1,0.95,0.95
6,63,2855,1,0.8,0.8
6,64,5320,-1,0.5,0.8
6,65,1752,-1,0.65,0.8
6,66,1509,1,0.95,0.8
6,67,1701,1,0.5,1.4
6,68,1350,1,0.95,0.8
6,69,1891,-1,0.65,0.95
6,70,2255,-1,1.1,0.65
6,71,9549,-1,0.8,0.8
6,72,759,1,0.65,0.65
6,73,1619,1,0.8,0.95
6,74,1815,1,0.35,1.25
6,75,2159,-1,0.0,0.8
6,76,1611,1,0.8,0.95
6,77,4682,1,0.8,0.95
6,78,1289,1,0.8,0.65
6,79,2833,1,0.65,0.95
6,120,1394,1,0.0,0.5
6,121,1906,1,0.8,0.65
6,122,2107,-1,0.95,0.8
6,123,3027,1,0.95,1.4
6,124,2600,1,0.95,0.8
6,125,1417,-1,0.95,0.65
6,126,2295,1,0.65,0.95
6,127,3582,-1,0.65,0.95
6,128,1190,1,0.8,0.95
6,129,1701,-1,0.65,1.4
6,130,3387,-1,0.65,0.65
6,131,1950,-1,0.95,0.95
6,132,4977,-1,0.95,0.8
6,133,1650,-1,0.95,0.35
6,134,1315,1,0.8,0.95
6,135,2396,-1,0.8,0.8
6,136,2956,-1,0.95,0.65
6,137,2401,-1,0.8,0.8
6,138,1843,1,1.4,0.95
6,139,971,-1,0.0,0.65
6,140,2911,1,0.8,0.5
6,141,1357,-1,0.8,0.95
6,142,2067,-1,0.65,0.65
6,143,2047,-1,1.1,0.95
6,144,3643,-1,0.5,0.95
6,145,2231,-1,0.8,0.65
6,146,2366,1,1.55,1.25
6,147,2632,1,0.8,0.95
6,148,1651,-1,0.65,0.8
6,149,1586,-1,0.35,0.65
6,150,1296,-1,0.95,0.95
6,151,1235,1,0.0,0.5
6,152,1516,1,0.65,1.55
6,153,2250,-1,0.95,0.65
6,154,2296,1,0.35,0.65
6,155,1628,-1,0.95,0.0
6,156,2304,-1,0.95,0.65
6,157,1846,1,0.95,0.95
6,158,1605,-1,0.95,0.0
6,159,1271,-1,1.4,0.5
6,200,2963,-1,0.95,0.8
6,201,2341,1,0.65,0.65
6,202,2313,1,0.8,0.0
6,203,1339,1,0.95,0.65
6,204,1323,-1,1.25,1.55
6,205,2284,1,0.95,0.65
6,206,1511,-1,1.4,0.95
6,207,1688,1,0.8,0.95
6,208,848,1,0.95,0.95
6,209,2451,1,0.8,0.95
6,210,1051,-1,0.5,0.0
6,211,1537,1,0.35,0.95
6,212,1026,-1,0.5,0.0
6,213,1821,1,0.65,1.1
6,214,1019,-1,0.65,0.0
6,215,1082,1,0.95,0.95
6,216,2864,1,0.95,0.65
6,217,2367,1,0.65,0.95
6,218,1091,-1,0.65,0.35
6,219,1598,1,0.8,0.65
6,220,1885,1,0.65,0.65
6,221,1530,-1,1.25,0.35
6,222,1104,-1,0.95,0.8
6,223,1021,-1,0.95,0.95
6,224,1850,-1,0.8,0.95
6,225,1320,1,0.65,0.65
6,226,904,1,0.0,0.95
6,227,1339,1,0.65,0.65
6,228,1143,-1,0.8,0.8
6,229,1422,-1,0.95,0.0
6,230,1125,1,0.95,0.95
6,231,1384,-1,0.95,0.8
6,232,1261,1,0.0,0.95
6,233,1501,-1,1.55,0.65
6,234,1148,1,0.65,0.95
6,235,1303,1,0.95,0.65
6,236,1263,1,0.5,0.8
6,237,1326,1,0.8,0.65
6,238,6668,-1,0.65,0.8
6,239,1010,1,0.0,0.95
7,0,2562,-1,0.95,0.95
7,1,3709,-1,2.45,1.1
7,2,3707,-1,1.1,1.1
7,3,1775,-1,1.4,0.95
7,4,2242,-1,1.1,0.35
7,5,7777,1,0.95,2.0
7,6,3068,1,1.1,0.95
7,7,4508,-1,1.55,1.1
7,8,3300,1,0.95,1.55
7,9,1901,1,0.95,1.1
7,10,2798,1,1.55,1.1
7,11,6463,1,0.5,0.95
7,12,2423,1,0.95,2.3
7,13,3995,-1,2.45,2.0
7,14,4172,1,0.95,1.1
7,15,2646,-1,1.1,0.65
7,16,3748,1,0.35,0.5
7,17,3971,-1,0.95,1.4
7,18,4791,-1,1.25,0.5
7,19,6822,1,1.55,1.85
7,20,7438,1,1.1,1.1
7,21,4818,-1,2.0,1.25
7,22,2526,-1,2.0,0.35
7,23,4766,-1,2.0,1.4
7,24,2008,1,2.0,1.1
7,25,2589,1,0.5,2.45
7,26,2672,1,2.0,2.45
7,27,3508,1,0.35,1.1
7,28,2744,-1,1.4,1.1
7,29,6724,-1,1.1,1.25
7,30,4206,1,0.5,0.95
7,31,3373,1,2.0,0.95
7,32,2463,-1,0.95,0.95
7,33,3506,1,1.1,0.95
7,34,2164,1,1.1,2.45
7,35,2248,-1,0.95,1.1
7,36,1490,1,1.25,1.1
7,37,2130,1,0.95,1.25
7,38,1253,-1,1.1,1.1
7,39,3991,1,0.95,1.1
7,80,2772,-1,2.45,1.1
7,81,2700,1,0.5,1.25
7,82,2661,-1,1.55,0.95
7,83,1749,1,0.95,1.4
7,84,2555,-1,1.1,0.95
7,85,2085,-1,1.1,1.25
7,86,2682,-1,1.4,2.0
7,87,3236,1,1.1,1.55
7,88,2828,1,0.95,0.95
7,89,2501,-1,2.0,0.5
7,90,2631,-1,1.1,0.95
7,91,4864,1,1.1,0.95
7,92,1410,-1,1.1,1.1
7,93,1475,1,0.8,1.1
7,94,4804,-1,2.0,1.1
7,95,1677,1,1.1,1.1
7,96,2396,1,1.1,2.3
7,97,2395,-1,1.1,0.95
7,98,2022,1,0.35,1.1
7,99,1751,1,0.35,2.0
7,100,2889,-1,2.0,0.8
7,101,1270,-1,1.25,2.0
7,102,4447,-1,0.95,0.65
7,103,2915,-1,1.25,0.95
7,104,9013,1,1.55,1.4
7,105,1853,1,1.1,2.45
7,106,3567,1,1.1,1.85
7,107,4428,-1,2.45,2.0
7,108,3230,1,1.1,1.55
7,109,4884,-1,1.1,2.0
7,110,2585,1,1.1,1.1
7,111,3986,1,1.1,1.1
7,112,2925,-1,0.5,0.35
7,113,2860,-1,1.55,0.65
7,114,2888,-1,1.4,0.65
7,115,3153,-1,0.95,1.1
7,116,3830,1,1.4,0.95
7,117,2264,1,0.65,1.1
7,118,3281,1,0.95,2.0
7,119,3370,-1,0.95,0.5
7,160,2827,1,1.1,1.4
7,161,3953,1,2.0,2.45
7,162,6634,-1,1.25,1.1
7,163,3319,1,1.1,2.45
7,164,1949,-1,1.1,0.95
7,165,2403,-1,1.55,1.1
7,166,1743,1,0.95,1.1
7,167,2682,1,0.65,0.95
7,168,2349,-1,1.1,1.1
7,169,2716,1,1.55,0.95
7,170,6127,-1,1.85,1.1
7,171,2647,-1,1.1,1.1
7,172,3192,1,0.95,0.95
7,173,2950,-1,2.45,0.5
7,174,1723,1,2.0,1.25
7,175,2383,-1,0.95,1.1
7,176,1962,1,0.8,2.0
7,177,3720,-1,0.95,1.55
7,178,3087,-1,1.85,1.55
7,179,1255,-1,2.3,1.1
7,180,3736,1,0.95,0.5
7,181,1760,-1,1.1,0.95
7,182,1405,-1,1.1,0.8
7,183,2316,-1,0.95,1.1
7,184,1680,1,1.1,0.95
7,185,3267,1,1.25,2.0
7,186,3536,1,1.4,1.55
7,187,1581,1,1.1,1.1
7,188,1304,1,0.95,1.1
7,189,2650,1,0.65,1.4
7,190,1761,1,1.1,2.0
7,191,2423,1,2.0,0.95
7,192,1690,1,0.65,1.55
7,193,2103,-1,2.45,1.1
7,194,1738,1,1.1,1.1
7,195,3921,-1,1.1,0.35
7,196,2330,-1,2.3,0.95
7,197,1808,1,0.5,2.0
7,198,1669,1,1.1,1.1
7,199,2295,-1,1.1,1.55
8,0,6280,-1,1.85,1.7
8,1,3262,-1,1.25,1.25
8,2,2781,1,2.75,1.25
8,3,4808,1,2.0,0.8
8,4,3763,-1,1.4,2.0
8,5,2120,1,0.8,1.85
8,6,4439,1,0.8,1.25
8,7,2881,1,1.4,2.15
8,8,8834,1,2.3,1.85
8,9,2776,-1,2.0,1.25
8,10,1966,1,1.25,2.0
8,11,2514,-1,0.95,2.45
8,12,10046,1,1.7,1.7
8,13,4799,1,1.7,2.3
8,14,2205,-1,1.7,0.95
8,15,1809,1,2.15,2.0
8,16,5917,1,2.15,1.85
8,17,5962,1,1.1,1.25
8,18,3225,-1,1.4,1.25
8,19,3906,-1,1.1,2.0
8,20,9244,1,2.75,2.0
8,21,3254,-1,0.8,0.8
8,22,7203,1,2.0,0.95
8,23,3248,-1,1.4,1.4
8,24,9608,1,2.3,1.25
8,25,2238,-1,2.6,0.95
8,26,2748,-1,2.15,2.0
8,27,3612,1,1.7,0.95
8,28,2269,-1,2.45,0.95
8,29,1844,-1,1.85,2.0
8,30,3228,1,1.25,0.95
8,31,2352,1,2.0,2.3
8,32,6776,-1,2.45,2.0
8,33,2230,1,1.85,2.45
8,34,2359,-1,1.25,2.15
8,35,1954,1,1.85,1.1
8,36,3237,1,0.95,2.15
8,37,1781,-1,1.85,1.25
8,38,4639,1,2.3,2.0
8,39,2979,-1,1.7,2.0
8,80,1878,1,2.0,2.3
8,81,1993,-1,1.25,1.25
8,82,4066,1,1.85,2.45
8,83,1666,-1,1.25,1.1
8,84,2165,1,0.8,0.95
8,85,1595,1,1.7,2.15
8,86,1735,-1,1.1,1.85
8,87,1822,1,0.95,2.45
8,88,2027,-1,2.0,2.75
8,89,2905,-1,1.25,2.45
8,90,1535,-1,2.0,2.15
8,91,1528,-1,2.0,1.4
8,92,1831,1,0.95,1.7
8,93,2177,1,1.25,2.0
8,94,2255,-1,2.15,1.85
8,95,1615,1,0.8,2.3
8,96,2366,1,2.15,1.25
8,97,1262,-1,2.0,2.15
8,98,1535,1,2.0,1.1
8,99,1314,1,1.25,1.85
8,100,4734,-1,0.95,1.4
8,101,4219,-1,1.7,1.7
8,102,2133,-1,1.85,2.3
8,103,3283,1,1.25,1.4
8,104,1390,1,2.0,2.15
8,105,1494,1,1.85,1.25
8,106,1043,-1,2.6,2.6
8,107,1583,-1,1.25,2.75
8,108,1951,1,2.15,0.95
8,109,1185,-1,0.8,2.0
8,110,1984,-1,2.0,0.95
8,111,1339,-1,2.3,2.0
8,112,1286,-1,2.3,0.8
8,113,1944,-1,1.7,1.85
8,114,1853,1,0.8,0.95
8,115,2109,-1,0.95,1.7
8,116,1583,1,2.6,0.8
8,117,1535,1,1.1,0.95
8,118,1668,1,2.15,1.4
8,119,1780,-1,1.85,1.4
8,160,2931,1,1.85,2.15
8,161,2067,-1,1.85,0.8
8,162,1560,1,0.8,0.8
8,163,2001,-1,2.3,2.0
8,164,1441,1,2.45,0.95
8,165,1422,1,2.0,1.85
8,166,3294,-1,0.95,0.8
8,167,1937,-1,2.15,0.95
8,168,1752,1,0.8,2.3
8,169,1688,-1,2.3,0.8
8,170,1085,1,0.95,2.0
8,171,1381,1,2.0,1.7
8,172,1506,-1,2.45,1.85
8,173,1745,-1,0.8,2.6
8,174,2935,-1,1.25,2.3
8,175,1693,-1,2.15,1.7
8,176,9412,-1,2.45,1.25
8,177,2314,-1,1.85,2.15
8,178,1464,1,2.6,2.6
8,179,2187,1,2.0,2.45
8,180,1468,-1,0.95,0.8
8,181,1348,1,1.25,1.25
8,182,1945,1,1.4,1.4
8,183,1382,1,0.95,2.6
8,184,1886,-1,1.25,0.8
8,185,3569,-1,2.0,2.3
8,186,3349,-1,0.95,2.15
8,187,1595,1,1.4,1.85
8,188,1380,1,1.25,1.25
8,189,1668,1,1.4,2.0
8,190,2449,-1,0.95,1.25
8,191,1612,1,2.15,2.0
8,192,1495,-1,2.45,1.85
8,193,1574,1,1.4,0.95
8,194,2403,-1,0.95,1.1
8,195,1463,-1,0.95,2.0
8,196,2565,1,2.0,1.4
8,197,1537,-1,2.3,1.7
8,198,2100,-1,2.0,1.25
8,199,1383,-1,1.25,1.85
9,0,4076,1,0.5,0.65
9,1,7342,-1,0.95,0.8
9,2,7926,1,1.1,1.55
9,3,7862,-1,1.1,0.5
9,4,9211,-1,1.4,0.65
9,5,6437,-1,0.65,0.5
9,6,8887,1,0.8,0.8
9,7,7906,-1,0.35,0.2
9,8,7682,-1,0.65,0.5
9,9,12700,1,0.5,0.35
9,10,10860,-1,1.55,1.1
9,11,5201,-1,1.1,0.5
9,12,6160,-1,0.5,0.65
9,13,5265,1,0.35,0.8
9,14,7706,-1,1.4,0.8
9,15,7950,-1,0.95,0.65
9,16,3178,1,0.2,0.8
9,17,5989,1,0.8,1.4
9,18,3409,1,0.65,0.65
9,19,2703,1,0.65,0.95
9,20,6270,1,1.4,1.55
9,21,3970,-1,0.5,0.35
9,22,8677,1,0.65,0.8
9,23,5384,-1,1.4,0.65
9,24,4131,-1,1.55,0.8
9,25,7368,1,0.5,0.95
9,26,3027,-1,0.95,0.35
9,27,1947,-1,0.8,0.5
9,28,3251,-1,0.8,0.35
9,29,5353,1,0.65,1.1
9,30,2235,1,0.5,1.55
9,31,3470,-1,1.25,0.95
9,32,6025,-1,1.55,0.35
9,33,1555,-1,0.8,0.65
9,34,4056,1,0.8,1.4
9,35,2030,1,0.05,0.8
9,36,3565,1,0.65,0.8
9,37,1937,1,0.35,0.5
9,38,4421,1,0.65,1.25
9,39,3242,1,0.35,0.65
9,80,1697,1,0.35,1.55
9,81,1908,-1,0.65,0.65
9,82,1797,-1,0.8,0.5
9,83,2048,-1,0.8,0.5
9,84,1799,1,0.65,1.4
9,85,2018,-1,1.25,0.65
9,86,2057,-1,1.1,0.95
9,87,2199,1,0.2,0.35
9,88,5826,1,0.5,0.65
9,89,4129,-1,0.65,0.65
9,90,1566,1,0.65,1.4
9,91,2613,1,0.65,0.8
9,92,1468,1,0.2,1.55
9,93,1699,-1,1.55,0.65
9,94,1608,1,0.5,0.65
9,95,1556,-1,0.8,0.2
9,96,1669,1,0.05,0.35
9,97,1331,1,0.95,1.25
9,98,3185,-1,0.8,0.05
9,99,1955,-1,1.1,0.65
9,100,2036,1,0.8,1.4
9,101,1657,-1,0.8,0.65
9,102,1579,1,0.5,1.1
9,103,2195,1,1.1,1.55
9,104,1662,1,0.35,1.55
9,105,1752,-1,0.95,0.8
9,106,1536,1,0.35,0.8
9,107,5328,1,0.8,0.95
9,108,6890,-1,0.65,0.95
9,109,4058,-1,1.4,0.8
9,110,2141,-1,0.65,0.35
9,111,1434,-1,0.8,0.35
9,112,3682,-1,0.65,0.5
9,113,886,1,0.8,0.95
9,114,1430,-1,0.65,0.2
9,115,2134,-1,0.95,0.65
9,116,1446,1,0.35,1.4
9,117,1959,-1,1.1,0.8
9,118,3418,-1,0.35,0.5
9,119,3483,-1,1.55,1.55
9,160,1629,1,0.8,0.95
9,161,1546,1,0.5,1.1
9,162,1854,1,0.65,0.95
9,163,5188,1,0.8,0.65
9,164,1442,-1,1.55,0.5
9,165,1680,-1,1.55,1.4
9,166,1745,-1,0.35,0.05
9,167,1625,1,0.8,1.1
9,168,1612,1,0.2,0.65
9,169,1946,-1,0.65,0.35
9,170,1740,-1,1.4,0.35
9,171,1863,-1,0.95,0.65
9,172,1989,-1,1.4,0.8
9,173,1949,-1,0.95,0.5
9,174,1747,-1,0.65,0.5
9,175,2973,-1,1.1,0.5
9,176,2123,-1,1.55,1.1
9,177,1819,1,0.5,0.8
9,178,2069,1,0.8,1.55
9,179,1819,1,0.5,0.8
9,180,1802,-1,1.55,0.35
9,181,3558,-1,0.65,0.5
9,182,2240,-1,1.4,0.65
9,183,1748,1,0.35,0.5
9,184,1234,1,0.65,1.4
9,185,1470,1,0.5,0.8
9,186,2641,1,0.35,0.95
9,187,2270,1,1.55,1.55
9,188,4314,1,0.65,0.65
9,189,1667,-1,1.55,0.2
9,190,1672,-1,1.55,0.35
9,191,2124,-1,0.8,0.8
9,192,2135,-1,0.5,0.35
9,193,1664,1,0.65,1.55
9,194,1724,1,0.95,1.1
9,195,3955,-1,0.35,0.65
9,196,1780,-1,0.95,0.8
9,197,1572,1,0.5,1.1
9,198,1499,1,0.35,1.55
9,199,1501,1,0.5,0.65
10,0,3506,-1,0.5,0.05
10,1,2980,-1,1.55,0.5
10,2,3085,-1,2.15,1.7
10,3,4721,1,2.45,2.0
10,4,2865,1,2.15,2.45
10,5,3203,1,1.55,1.85
10,6,4214,1,2.0,1.1
10,7,3555,-1,1.7,1.7
10,8,2589,1,1.7,1.7
10,9,7639,-1,0.5,2.15
10,10,2773,1,0.5,1.7
10,11,2031,1,0.2,2.45
10,12,2572,-1,0.95,0.8
10,13,2365,1,0.8,2.0
10,14,2909,1,1.4,2.45
10,15,2928,-1,1.4,2.75
10,16,3911,1,2.15,2.0
10,17,3158,-1,1.85,2.0
10,18,4834,1,2.15,1.7
10,19,5582,-1,1.7,2.45
10,20,5670,-1,2.0,0.5
10,21,3809,1,0.35,0.95
10,22,2212,-1,1.4,1.1
10,23,3480,1,1.7,2.15
10,24,3696,1,1.85,2.45
10,25,6170,1,2.0,1.55
10,26,4571,-1,1.85,0.65
10,27,4636,-1,1.7,0.95
10,28,3689,-1,1.55,0.65
10,29,4681,-1,0.95,0.8
10,30,3393,1,1.25,1.7
10,31,9360,1,1.7,1.55
10,32,7062,-1,1.4,0.5
10,33,4169,1,0.05,2.0
10,34,2802,-1,2.15,1.25
10,35,3467,-1,0.95,2.45
10,36,3090,1,2.75,2.3
10,37,2204,1,1.85,0.95
10,38,1922,-1,2.3,1.55
10,39,5786,-1,1.55,1.1
10,80,2736,-1,1.7,0.5
10,81,2466,-1,2.15,0.5
10,82,3623,1,1.55,2.0
10,83,2424,1,0.8,2.0
10,84,2002,-1,2.45,0.2
10,85,1571,1,0.05,0.5
10,86,3560,-1,2.15,0.95
10,87,2252,1,1.1,2.0
10,88,1642,1,1.55,1.25
10,89,4497,1,2.0,2.3
10,90,1703,-1,1.1,2.45
10,91,1717,-1,2.3,0.35
10,92,2756,-1,0.5,1.55
10,93,2988,-1,1.1,1.55
10,94,2556,1,1.7,1.25
10,95,2471,-1,2.0,2.0
10,96,2101,1,1.1,1.7
10,97,3562,-1,1.7,1.85
10,98,4303,-1,0.95,1.1
10,99,1778,1,0.5,1.4
10,100,1344,1,0.65,1.55
10,101,1962,1,1.7,1.7
10,102,4684,-1,2.45,0.95
10,103,2466,-1,1.7,2.0
10,104,1986,-1,2.45,1.4
10,105,2107,-1,2.45,1.85
10,106,2329,-1,1.25,0.35
10,107,2312,1,0.35,2.45
10,108,1893,-1,2.15,1.7
10,109,2260,-1,2.0,0.05
10,110,1554,1,0.2,1.4
10,111,2578,1,0.95,1.7
10,112,2204,1,1.4,2.0
10,113,3943,1,0.5,1.85
10,114,2454,-1,2.45,1.7
10,115,2718,-1,2.0,2.15
10,116,2538,-1,1.25,1.7
10,117,1732,-1,2.45,1.85
10,118,3655,-1,1.7,2.15
10,119,4338,-1,1.7,1.25
10,160,4509,1,0.8,0.95
10,161,1608,1,0.35,2.3
10,162,1847,1,0.5,2.0
10,163,3415,-1,1.85,1.55
10,164,2469,-1,2.45,1.1
10,165,2127,1,1.7,1.25
10,166,3784,-1,1.25,1.7
10,167,4130,1,2.0,1.85
10,168,2072,-1,1.7,1.1
10,169,2461,1,1.55,2.3
10,170,3262,-1,2.0,0.8
10,171,2578,1,1.85,1.7
10,172,2521,1,2.0,1.7
10,173,2312,1,1.1,0.95
10,174,5048,-1,2.0,0.8
10,175,2326,1,1.1,1.4
10,176,2761,-1,2.0,2.45
10,177,1701,-1,2.0,1.4
10,178,1430,-1,2.3,2.0
10,179,2193,-1,2.45,2.15
10,180,1634,-1,2.3,2.75
10,181,3721,-1,0.95,0.35
10,182,2321,-1,1.25,1.55
10,183,3127,1,0.5,1.7
10,184,4937,-1,1.85,0.5
10,185,1991,1,1.85,2.45
10,186,1710,-1,2.45,0.35
10,187,2766,-1,2.0,2.0
10,188,1513,-1,1.7,0.5
10,189,2012,1,0.8,0.95
10,190,4019,-1,0.95,1.85
10,191,2201,1,1.25,2.15
10,192,2828,-1,1.7,1.7
10,193,3757,-1,1.55,1.7
10,194,1941,1,1.7,2.15
10,195,2158,1,2.75,1.4
10,196,2861,1,0.95,2.15
10,197,1471,-1,1.4,0.2
10,198,2292,1,0.65,1.85
10,199,2536,1,0.35,1.25
11,0,2760,-1,0.8,1.85
11,1,5105,1,1.1,1.1
11,2,4853,1,0.95,0.8
11,3,3052,-1,0.65,0.35
11,4,5478,1,0.95,0.5
11,5,2862,1,0.65,0.8
11,6,2763,1,0.9,0.95
11,7,3249,1,0.95,2.6
11,8,5690,1,1.1,1.25
11,9,2140,1,0.8,0.5
11,10,2729,1,0.5,0.8
11,11,1517,1,0.35,1.55
11,12,2032,-1,2.0,0.8
11,13,4849,-1,1.1,0.95
11,14,2284,-1,1.55,1.25
11,15,3563,-1,2.6,2.75
11,16,2064,-1,0.95,1.4
11,17,3308,-1,0.8,0.8
11,18,2133,-1,2.0,0.95
11,19,2093,1,0.95,2.6
11,20,2719,-1,0.95,0.8
11,21,2134,1,0.8,2.75
11,22,3938,-1,0.9,1.25
11,23,2338,-1,0.8,0.5
11,24,4431,1,1.55,2.15
11,25,3701,-1,1.85,1.1
11,26,3714,1,0.8,1.1
11,27,2911,1,0.95,1.1
11,28,2926,-1,1.55,0.95
11,29,4004,-1,1.55,0.65
11,30,3017,1,0.8,0.8
11,31,2236,-1,1.1,0.5
11,32,4422,-1,0.95,1.1
11,33,2606,-1,1.55,1.1
11,34,3975,-1,1.1,0.5
11,35,1816,-1,0.95,0.5
11,36,2089,-1,2.6,1.1
11,37,1671,1,1.4,2.0
11,38,3882,-1,2.15,0.8
11,39,3183,1,0.65,1.1
11,80,2048,-1,1.1,0.8
11,81,1358,1,0.95,2.0
11,82,1972,1,1.1,2.6
11,83,1506,1,0.5,0.95
11,84,1870,1,1.25,1.55
11,85,3827,1,1.55,2.0
11,86,4009,1,0.95,0.95
11,87,1823,-1,0.95,0.5
11,88,1891,-1,1.55,0.5
11,89,3176,-1,0.8,1.1
11,90,1522,1,1.85,2.0
11,91,1172,1,0.5,1.1
11,92,1541,1,1.1,1.85
11,93,1815,-1,1.1,1.55
11,94,1635,1,1.1,2.6
11,95,1287,1,0.8,2.0
11,96,1549,1,0.5,0.8
11,97,2081,-1,0.95,1.1
11,98,3162,1,1.25,0.95
11,99,1424,1,0.8,2.15
11,100,2061,-1,1.1,0.8
11,101,2998,-1,2.15,1.55
11,102,2476,-1,2.0,0.8
11,103,2307,1,0.65,1.55
11,104,2429,-1,1.1,0.65
11,105,1946,-1,0.8,0.35
11,106,1583,1,0.35,2.6
11,107,1881,1,0.8,0.95
11,108,4080,1,0.95,0.95
11,109,1583,-1,0.95,0.9
11,110,1862,-1,1.55,0.35
11,111,2190,-1,1.7,0.8
11,112,3909,1,0.95,1.7
11,113,2582,-1,2.15,0.95
11,114,2094,-1,0.8,0.5
11,115,1126,1,0.35,0.65
11,116,4553,-1,1.1,2.15
11,117,2060,-1,0.5,1.85
11,118,1614,-1,1.1,0.8
11,119,2439,1,0.8,0.65
11,160,2055,-1,2.6,1.1
11,161,1806,1,0.95,1.55
11,162,2709,1,0.8,0.95
11,163,5664,1,2.15,1.1
11,164,4047,-1,1.25,1.1
11,165,5885,-1,1.1,0.95
11,166,2649,-1,2.0,1.4
11,167,2196,1,2.75,2.6
11,168,1713,1,1.1,0.8
11,169,1688,-1,0.8,0.8
11,170,2312,-1,1.7,0.95
11,171,1614,1,0.8,1.1
11,172,1674,1,2.6,0.95
11,173,2117,1,0.95,2.15
11,174,3274,1,2.75,0.8
11,175,1867,-1,1.1,0.95
11,176,1273,1,0.8,1.7
11,177,1686,1,0.8,0.8
11,178,1439,1,0.35,0.8
11,179,1928,-1,1.85,0.8
11,180,2615,-1,0.95,1.25
11,181,2699,-1,0.5,0.8
11,182,2169,1,0.95,0.8
11,183,2593,-1,0.95,0.95
11,184,2311,-1,2.6,0.95
11,185,3911,-1,0.95,0.95
11,186,2211,1,1.85,0.5
11,187,1851,1,1.1,1.1
11,188,1526,1,0.8,1.1
11,189,1669,1,0.5,1.1
11,190,2369,-1,2.6,0.35
11,191,1317,1,0.8,0.95
11,192,2625,1,2.0,1.55
11,193,2430,-1,1.25,0.9
11,194,2106,1,0.8,2.0
11,195,1432,1,1.4,0.95
11,196,1304,1,0.5,0.95
11,197,2075,1,2.0,1.85
11,198,3202,1,0.5,0.95
11,199,926,1,0.5,1.55
12,0,3122,1,1.1,1.55
12,1,2113,-1,2.0,0.95
12,2,1817,1,0.95,1.25
12,3,13467,1,2.0,1.1
12,4,2553,1,0.5,0.95
12,5,3777,-1,1.55,0.95
12,6,2998,-1,1.1,0.8
12,7,3867,1,3.0,1.55
12,8,3850,1,1.25,1.1
12,9,3788,-1,1.25,0.95
12,10,3168,-1,1.25,0.8
12,11,5483,1,0.8,0.95
12,12,5333,-1,1.4,0.95
12,13,3084,1,0.95,1.1
12,14,2038,1,1.1,2.0
12,15,2726,1,0.65,1.1
12,16,2985,1,1.1,1.1
12,17,3928,1,1.25,1.25
12,18,2503,-1,1.1,0.65
12,19,2530,1,0.95,3.0
12,20,7257,1,0.8,1.55
12,21,3053,-1,1.1,0.5
12,22,5096,1,0.95,1.4
12,23,2094,1,1.1,2.3
12,24,2974,1,0.95,1.1
12,25,3254,-1,1.55,0.8
12,26,1982,-1,1.55,1.55
12,27,5552,1,1.1,1.4
12,28,5590,1,1.4,1.1
12,29,9101,1,1.25,1.1
12,30,4241,-1,0.95,0.8
12,31,6322,1,1.4,2.0
12,32,4835,1,1.1,1.1
12,33,3087,-1,0.95,0.95
12,34,2451,-1,1.55,1.25
12,35,13101,-1,1.1,1.1
12,36,3194,1,0.95,1.1
12,37,3344,-1,1.1,0.95
12,38,1457,-1,1.1,0.95
12,39,2485,-1,0.95,0.95
12,80,2982,-1,1.1,1.25
12,81,3131,-1,1.1,0.8
12,82,2125,1,0.95,1.4
12,83,1741,1,1.25,0.95
12,84,7726,1,1.25,1.55
12,85,2261,1,0.5,1.1
12,86,1268,-1,1.1,0.95
12,87,3110,1,1.25,1.1
12,88,2557,-1,1.4,1.25
12,89,3128,-1,1.1,1.4
12,90,2172,-1,1.1,1.1
12,91,2781,1,1.4,0.8
12,92,1806,-1,2.0,1.1
12,93,1993,1,0.8,1.1
12,94,2642,1,0.95,0.95
12,95,3105,-1,1.1,1.1
12,96,4473,-1,0.95,1.1
12,97,1413,-1,2.3,1.1
12,98,1600,-1,1.55,0.8
12,99,1747,1,1.55,1.55
12,100,4233,1,2.0,2.3
12,101,2041,-1,1.1,1.1
12,102,6414,1,1.1,1.1
12,103,2066,1,0.95,1.1
12,104,3344,-1,1.25,1.1
12,105,1771,-1,2.0,0.8
12,106,4325,-1,0.95,0.8
12,107,1653,1,0.65,1.1
12,108,1831,1,0.95,0.95
12,109,2366,-1,1.85,1.1
12,110,3928,-1,0.95,1.85
12,111,745,-1,1.4,1.1
12,112,589,-1,1.1,2.0
12,113,2382,-1,1.1,0.95
12,114,2128,-1,1.1,1.25
12,115,1814,1,1.1,1.1
12,116,1919,1,0.8,1.55
12,117,1829,1,0.8,1.25
12,118,5215,1,0.95,1.25
12,119,1722,1,0.95,1.1
12,160,1948,-1,1.1,1.25
12,161,2361,-1,1.25,1.25
12,162,1359,-1,1.4,0.95
12,163,3505,-1,1.25,0.95
12,164,1759,1,1.25,1.4
12,165,2437,-1,1.4,0.95
12,166,1846,1,1.1,2.0
12,167,6845,-1,1.1,0.95
12,168,3491,-1,1.55,1.1
12,169,2384,1,1.1,1.1
12,170,1764,1,1.1,0.8
12,171,2886,-1,1.1,0.65
12,172,2924,-1,2.3,2.0
12,173,1612,-1,1.1,1.1
12,174,1905,-1,0.95,1.25
12,175,2184,-1,1.1,1.85
12,176,1669,1,0.95,1.1
12,177,2722,-1,1.1,2.0
12,178,4781,1,0.8,1.4
12,179,923,-1,0.8,2.0
12,180,2715,1,0.8,0.95
12,181,1932,-1,1.1,0.95
12,182,2508,1,1.55,3.0
12,183,1277,-1,2.0,1.1
12,184,2415,-1,3.0,0.95
12,185,5030,-1,2.0,1.1
12,186,1638,1,1.1,1.1
12,187,1720,-1,0.8,1.1
12,188,1208,-1,0.8,1.1
12,189,6303,1,0.95,0.5
12,190,1810,1,0.95,1.55
12,191,2031,-1,1.1,1.1
12,192,1511,1,0.95,2.0
12,193,1582,-1,2.0,1.4
12,194,1433,-1,1.1,1.1
12,195,1773,-1,1.1,1.1
12,196,1225,-1,1.85,0.95
12,197,2914,-1,1.1,0.95
12,198,1666,1,0.95,1.4
12,199,3874,-1,1.1,1.25
13,0,3026,-1,1.55,0.95
13,1,6085,-1,1.4,0.65
13,2,2973,1,0.5,1.25
13,3,2403,-1,1.7,0.2
13,4,4994,-1,1.4,1.25
13,5,8129,1,0.8,1.1
13,6,2724,1,0.2,0.95
13,7,2958,1,0.65,1.7
13,8,6325,-1,0.8,0.8
13,9,2982,-1,1.55,0.95
13,10,2517,1,0.5,1.7
13,11,4855,-1,0.8,0.5
13,12,5389,-1,1.4,0.65
13,13,8752,-1,0.65,0.5
13,14,6138,1,1.4,0.8
13,15,11077,1,0.8,1.7
13,16,8571,-1,1.7,1.4
13,17,2352,1,0.35,1.4
13,18,2796,1,0.65,1.7
13,19,7217,-1,1.55,1.1
13,20,2216,-1,0.45,0.15
13,21,4222,1,1.4,1.4
13,22,8159,1,1.25,1.55
13,23,2066,-1,0.95,0.35
13,24,6417,-1,0.8,0.65
13,25,3729,1,1.7,2.0
13,26,2155,-1,1.55,0.8
13,27,1420,-1,1.55,0.5
13,28,2756,-1,0.95,0.95
13,29,5361,-1,0.65,0.35
13,30,2690,-1,2.0,0.95
13,31,3691,1,1.7,2.0
13,32,3081,1,0.8,0.95
13,33,3734,-1,1.85,1.55
13,34,1798,1,1.25,0.65
13,35,7156,-1,0.5,1.7
13,36,3874,1,0.45,1.4
13,37,1818,-1,1.7,1.25
13,38,2288,1,0.0,0.8
13,39,1531,-1,1.7,0.95
13,80,1843,-1,2.0,0.95
13,81,2659,1,0.65,1.25
13,82,6096,1,1.55,1.7
13,83,1394,-1,1.7,0.65
13,84,1685,-1,0.5,0.95
13,85,5368,-1,1.4,1.4
13,86,3149,1,0.95,1.55
13,87,4200,1,1.1,1.55
13,88,1871,-1,0.65,0.2
13,89,5307,1,2.0,1.7
13,90,1129,1,0.15,1.7
13,91,3542,-1,1.7,1.1
13,92,3093,-1,0.65,0.95
13,93,4561,-1,1.25,0.5
13,94,1770,-1,1.4,0.35
13,95,1420,-1,1.7,0.5
13,96,3153,1,1.25,1.4
13,97,3412,1,0.95,1.85
13,98,2581,1,1.7,1.55
13,99,2098,-1,1.7,0.65
13,100,3913,-1,0.95,0.65
13,101,2231,1,0.95,1.7
13,102,2624,1,0.5,0.5
13,103,4743,-1,1.1,0.95
13,104,1592,-1,1.25,0.5
13,105,3100,1,0.35,1.7
13,106,4751,1,1.7,0.8
13,107,3495,-1,1.1,0.8
13,108,1791,1,0.2,1.7
13,109,2888,1,0.5,0.8
13,110,1503,1,0.35,0.95
13,111,1312,1,0.35,0.65
13,112,2402,1,0.2,1.7
13,113,1841,-1,0.8,1.4
13,114,2094,1,0.0,1.55
13,115,2247,1,0.15,0.45
13,116,2259,1,0.65,0.8
13,117,2496,1,1.25,1.7
13,118,3827,-1,1.55,1.7
13,119,2171,-1,0.65,1.25
13,160,4286,-1,1.85,0.95
13,161,1674,-1,1.55,0.0
13,162,2642,-1,0.65,0.95
13,163,1775,1,1.7,1.55
13,164,1913,1,0.8,0.8
13,165,1524,1,0.5,1.55
13,166,3266,1,1.4,1.7
13,167,2329,1,0.8,1.55
13,168,1653,-1,1.7,0.2
13,169,3485,-1,1.25,0.65
13,170,3184,1,0.95,1.55
13,171,2099,1,0.95,0.65
13,172,1136,1,0.95,1.55
13,173,3904,-1,1.55,1.25
13,174,3114,-1,1.25,1.4
13,175,1077,-1,0.8,0.0
13,176,4534,1,1.55,1.85
13,177,3365,1,1.1,1.7
13,178,4319,-1,1.7,1.55
13,179,1701,-1,0.95,0.2
13,180,2377,1,0.95,0.95
13,181,1792,-1,0.5,0.5
13,182,4765,-1,1.55,0.95
13,183,4563,-1,0.5,1.25
13,184,1163,1,0.2,0.65
13,185,2835,-1,1.4,0.45
13,186,2615,1,0.95,2.0
13,187,2472,-1,1.7,0.35
13,188,1629,-1,1.7,0.15
13,189,2520,1,0.95,2.0
13,190,1672,1,0.95,1.1
13,191,6876,-1,1.4,1.25
13,192,2783,1,1.7,0.5
13,193,1208,1,0.5,0.65
13,194,4702,1,0.95,0.8
13,195,2309,-1,1.55,1.7
13,196,5914,1,0.65,1.4
13,197,1745,1,0.95,0.5
13,198,2538,-1,2.0,1.7
13,199,6103,1,0.65,1.4
14,40,2347,1,0.0,1.7
14,41,4609,-1,2.15,1.85
14,42,2277,-1,1.85,0.95
14,43,4343,1,1.85,2.15
14,44,1852,-1,2.45,0.95
14,45,3006,1,1.25,3.0
14,46,3997,1,1.85,1.85
14,47,2303,1,1.7,1.85
14,48,2471,-1,1.7,0.95
14,49,2984,-1,2.3,1.7
14,50,2887,-1,2.15,1.55
14,51,3416,1,0.0,1.4
14,52,3238,-1,2.0,2.15
14,53,4059,1,2.0,2.0
14,54,5618,-1,3.0,1.7
14,55,2367,1,2.15,2.0
14,56,4644,-1,2.45,2.0
14,57,2863,1,1.25,1.7
14,58,5322,-1,2.3,1.85
14,59,3601,-1,0.95,1.55
14,60,3177,-1,2.0,1.1
14,61,2087,1,1.1,1.85
14,62,1881,-1,2.0,1.4
14,63,2636,1,0.0,2.0
14,64,2977,1,2.0,2.15
14,65,1999,-1,2.45,1.1
14,66,1680,-1,1.7,0.0
14,67,1682,-1,2.45,0.0
14,68,2004,-1,0.95,1.1
14,69,3834,1,0.0,1.85
14,70,2209,1,0.35,2.15
14,71,3455,1,1.55,2.6
14,72,1943,-1,3.0,2.0
14,73,2699,-1,1.55,0.95
14,74,2353,-1,1.25,1.1
14,75,1816,1,0.8,1.7
14,76,2326,1,1.7,2.3
14,77,1670,-1,1.85,1.25
14,78,1581,1,0.95,2.15
14,79,3447,1,1.25,2.0
14,120,2660,1,1.4,2.0
14,121,5081,1,2.0,2.45
14,122,1518,1,0.95,2.45
14,123,5153,-1,3.0,2.3
14,124,3875,1,2.6,2.45
14,125,3791,-1,2.45,0.0
14,126,11142,1,1.1,1.25
14,127,2744,1,1.55,2.15
14,128,3385,1,1.25,1.1
14,129,5527,1,1.7,1.7
14,130,4437,-1,2.0,1.7
14,131,2800,1,0.95,1.55
14,132,8278,-1,2.15,0.8
14,133,2593,1,1.7,2.0
14,134,5415,1,1.7,3.0
14,135,7503,1,0.95,2.0
14,136,1485,-1,1.85,0.0
14,137,1678,1,0.95,1.7
14,138,1670,-1,2.15,0.35
14,139,1435,-1,1.85,0.0
14,140,3075,-1,0.35,0.0
14,141,2836,1,1.85,2.3
14,142,2918,-1,1.7,1.25
14,143,3368,1,2.3,2.45
14,144,3790,1,1.1,2.45
14,145,3975,-1,2.15,2.0
14,146,10704,1,2.15,2.0
14,147,2259,-1,2.15,1.1
14,148,4703,1,2.0,1.85
14,149,3892,-1,1.55,1.1
14,150,2285,1,1.1,0.95
14,151,1677,-1,2.0,0.0
14,152,5637,-1,1.7,2.15
14,153,2500,1,1.1,2.0
14,154,1617,-1,2.0,0.95
14,155,6712,-1,2.15,1.85
14,156,1661,-1,0.95,0.0
14,157,2060,1,1.25,1.85
14,158,4647,1,2.15,2.45
14,159,3879,-1,2.3,1.55
14,200,2797,1,1.1,1.25
14,201,2269,1,1.55,2.3
14,202,3319,1,0.0,0.35
14,203,2630,1,0.0,2.45
14,204,4088,1,2.15,1.7
14,205,1656,-1,1.85,2.0
14,206,2743,1,2.3,3.0
14,207,2090,-1,1.7,0.8
14,208,2497,1,1.1,2.15
14,209,3452,1,0.95,1.85
14,210,1385,-1,3.0,1.25
14,211,1457,-1,2.0,1.7
14,212,2053,1,1.7,2.3
14,213,1590,-1,2.0,2.0
14,214,1725,-1,2.3,1.7
14,215,3526,-1,2.0,2.15
14,216,1481,-1,2.45,2.6
14,217,4475,-1,1.85,1.7
14,218,2768,1,0.95,2.0
14,219,2070,1,0.0,0.95
14,220,1682,-1,1.4,0.0
14,221,2798,-1,2.45,2.3
14,222,2243,1,1.85,2.15
14,223,2567,-1,2.6,1.55
14,224,2400,-1,1.85,1.1
14,225,1727,-1,2.15,0.95
14,226,1333,-1,1.7,1.7
14,227,1451,-1,2.45,2.15
14,228,3171,-1,2.0,0.95
14,229,1823,1,0.0,1.85
14,230,1639,-1,1.7,2.0
14,231,1509,1,0.0,1.7
14,232,1789,1,0.0,2.45
14,233,1537,-1,1.7,0.0
14,234,1819,1,1.1,1.55
14,235,1500,1,1.55,0.95
14,236,1563,-1,2.0,1.25
14,237,1570,-1,1.85,1.85
14,238,1690,1,0.8,2.15
14,239,1511,1,2.0,3.0
15,0,5398,-1,0.35,0.95
15,1,3681,-1,2.0,1.55
15,2,10254,1,1.25,0.35
15,3,7236,1,0.0,0.0
15,4,3581,1,0.0,2.15
15,5,6010,-1,1.4,0.8
15,6,2128,-1,2.6,0.2
15,7,3927,1,0.05,2.75
15,8,2434,-1,3.0,0.35
15,9,2731,1,0.05,2.15
15,10,3431,-1,0.05,0.0
15,11,5329,1,0.05,0.2
15,12,2264,-1,2.0,0.0
15,13,4634,-1,0.15,0.2
15,14,4420,1,0.05,0.05
15,15,4781,-1,1.55,0.95
15,16,2578,1,0.15,1.55
15,17,1730,-1,0.95,0.05
15,18,4365,1,0.35,0.05
15,19,6379,-1,2.15,0.95
15,20,5608,1,0.95,0.05
15,21,2135,-1,2.6,1.25
15,22,4357,1,0.05,0.05
15,23,5648,-1,0.35,0.2
15,24,3293,1,0.05,1.55
15,25,4716,-1,0.35,0.15
15,26,2743,1,0.15,0.65
15,27,9481,1,2.0,2.0
15,28,2364,-1,0.05,0.35
15,29,3458,1,0.05,0.65
15,30,4363,-1,1.4,0.15
15,31,4529,-1,2.0,0.05
15,32,5752,-1,0.65,1.55
15,33,3636,1,0.65,3.0
15,34,2780,-1,0.05,0.15
15,35,2434,1,0.05,1.55
15,36,6016,1,0.65,2.9
15,37,3525,1,0.35,0.8
15,38,13395,-1,0.35,0.65
15,39,4722,-1,0.95,0.05
15,80,2537,1,1.55,0.15
15,81,2947,1,0.95,2.15
15,82,1619,-1,0.05,0.05
15,83,1767,1,0.0,0.95
15,84,1357,-1,3.0,0.05
15,85,2327,1,1.25,2.6
15,86,1295,-1,1.85,0.95
15,87,1505,-1,0.35,1.25
15,88,1539,-1,1.55,0.05
15,89,1917,1,0.05,2.0
15,90,1641,-1,2.15,0.0
15,91,5970,1,2.0,2.0
15,92,1399,-1,2.9,0.0
15,93,2385,1,0.05,0.65
15,94,2077,1,0.05,0.65
15,95,3838,-1,0.65,0.35
15,96,2894,-1,0.0,0.0
15,97,3646,-1,0.0,0.2
15,98,2923,1,0.05,0.95
15,99,1362,-1,2.15,0.05
15,100,1653,1,0.0,1.85
15,101,2215,-1,0.05,0.05
15,102,1651,-1,0.65,0.15
15,103,1286,-1,2.75,0.05
15,104,1974,1,0.95,3.0
15,105,1744,1,0.65,2.15
15,106,2072,1,0.95,1.55
15,107,2848,1,0.2,2.15
15,108,2096,1,0.15,0.05
15,109,2181,1,0.05,0.0
15,110,1402,-1,0.35,0.05
15,111,2439,-1,1.55,0.05
15,112,1342,-1,2.15,1.55
15,113,1279,-1,2.75,0.65
15,114,1656,-1,0.2,0.05
15,115,3002,1,0.8,1.4
15,116,1997,1,0.05,0.95
15,117,2417,1,0.0,0.05
15,118,1851,1,0.2,2.6
15,119,5824,1,0.35,0.05
15,160,5859,-1,0.8,0.35
15,161,3315,1,0.2,0.0
15,162,2559,-1,3.0,0.95
15,163,4225,-1,1.55,2.0
15,164,2053,-1,0.65,0.05
15,165,2050,1,0.2,0.15
15,166,1325,-1,1.85,0.0
15,167,1781,1,0.05,0.35
15,168,2057,1,0.05,0.05
15,169,2343,-1,0.05,0.35
15,170,1676,1,0.05,2.0
15,171,7734,-1,0.95,0.05
15,172,1523,-1,2.15,0.2
15,173,1913,1,0.05,3.0
15,174,3258,1,0.05,0.05
15,175,1869,1,1.55,0.65
15,176,1785,1,0.05,0.95
15,177,1864,-1,0.65,0.05
15,178,1620,1,1.55,2.15
15,179,1421,-1,0.05,0.05
15,180,2821,1,0.05,1.55
15,181,1837,-1,2.0,0.05
15,182,2143,-1,0.0,0.05
15,183,2303,1,0.35,3.0
15,184,1635,-1,0.65,0.05
15,185,1685,1,0.15,0.35
15,186,1497,-1,0.05,0.95
15,187,1461,1,0.65,2.75
15,188,1409,-1,0.95,0.0
15,189,1371,-1,1.55,0.05
15,190,2282,1,0.05,0.05
15,191,1547,1,0.2,0.35
15,192,1484,1,0.15,1.4
15,193,2392,1,0.95,0.35
15,194,1386,-1,2.15,0.65
15,195,1743,1,0.0,2.9
15,196,1569,1,0.95,1.85
15,197,1427,-1,3.0,0.65
15,198,2294,1,0.0,2.0
15,199,1490,-1,2.9,0.65
16,0,5625,1,0.5,0.65
16,1,3011,-1,0.5,0.2
16,2,2836,-1,0.8,0.05
16,3,2489,-1,0.35,0.0
16,4,2592,1,0.35,0.2
16,5,6979,1,0.0,0.2
16,6,2678,-1,0.8,0.0
16,7,2408,1,0.0,0.5
16,8,5748,-1,0.05,0.2
16,9,2369,-1,0.35,0.0
16,10,2099,1,0.05,0.35
16,11,2751,-1,0.65,0.05
16,12,6040,1,0.5,0.35
16,13,3337,-1,0.5,0.2
16,14,3756,-1,0.95,0.2
16,15,5066,-1,0.2,0.2
16,16,1630,1,0.0,0.95
16,17,4238,-1,0.8,0.95
16,18,5891,-1,0.2,0.2
16,19,5531,1,0.35,0.5
16,20,4735,-1,0.0,0.05
16,21,4583,-1,0.2,0.05
16,22,2663,-1,0.5,0.2
16,23,1640,1,0.0,0.2
16,24,1840,1,0.0,0.95
16,25,3607,1,0.0,0.05
16,26,6972,1,0.0,0.0
16,27,2353,-1,0.65,0.0
16,28,1913,1,0.2,0.35
16,29,1857,1,0.0,0.05
16,30,2072,1,0.0,0.5
16,31,3879,-1,0.05,0.05
16,32,1814,-1,0.65,0.35
16,33,1994,-1,0.0,0.0
16,34,3409,-1,0.2,0.0
16,35,1475,1,0.0,0.2
16,36,6676,1,0.05,0.0
16,37,3013,-1,0.0,0.0
16,38,2350,-1,0.5,0.0
16,39,2477,1,0.0,0.35
16,80,1774,1,0.2,0.5
16,81,1889,-1,0.2,0.35
16,82,1475,1,0.0,0.35
16,83,3620,-1,0.0,0.0
16,84,4655,1,0.2,0.0
16,85,1990,-1,0.05,0.0
16,86,1708,1,0.0,0.0
16,87,1510,1,0.35,0.35
16,88,1843,-1,0.35,0.0
16,89,3003,-1,0.65,0.5
16,90,1585,1,0.0,0.5
16,91,1568,-1,0.95,0.0
16,92,1692,1,0.2,0.5
16,93,1234,1,0.2,0.8
16,94,1422,-1,0.35,0.05
16,95,1365,1,0.2,0.05
16,96,1767,-1,0.0,0.2
16,97,4305,-1,0.35,0.0
16,98,1648,1,0.0,0.05
16,99,1798,1,0.0,0.8
16,100,1422,1,0.2,0.2
16,101,2184,-1,0.5,0.2
16,102,4273,-1,0.0,0.0
16,103,1511,1,0.2,0.95
16,104,3052,1,0.35,0.8
16,105,2488,1,0.05,0.0
16,106,2853,1,0.0,0.2
16,107,2000,-1,0.5,0.05
16,108,1609,1,0.0,0.5
16,109,2723,-1,0.05,0.05
16,110,3316,-1,0.2,0.05
16,111,1875,-1,0.2,0.0
16,112,1548,1,0.2,0.95
16,113,1897,1,0.05,0.2
16,114,1611,1,0.05,0.65
16,115,1580,1,0.35,0.65
16,116,2759,1,0.0,0.0
16,117,3632,-1,0.35,0.05
16,118,2008,1,0.0,0.8
16,119,6381,1,0.2,0.0
16,160,3125,-1,0.0,0.0
16,161,1659,-1,0.95,0.0
16,162,1512,-1,0.8,0.2
16,163,3430,1,0.05,0.2
16,164,1727,1,0.35,0.5
16,165,1074,-1,0.05,0.0
16,166,1689,-1,0.95,0.0
16,167,1883,1,0.0,0.65
16,168,5919,-1,0.0,0.2
16,169,3246,1,0.0,0.2
16,170,1562,1,0.2,0.0
16,171,1391,-1,0.35,0.35
16,172,1656,1,0.0,0.35
16,173,1455,1,0.2,0.05
16,174,1239,-1,0.5,0.0
16,175,2428,1,0.0,0.0
16,176,1316,-1,0.2,0.0
16,177,1329,1,0.0,0.95
16,178,1224,-1,0.95,0.2
16,179,2683,1,0.0,0.0
16,180,2001,1,0.05,0.5
16,181,2319,1,0.0,0.35
16,182,1274,-1,0.5,0.0
16,183,1627,1,0.2,0.5
16,184,2387,1,0.95,0.8
16,185,1711,1,0.05,0.8
16,186,1138,-1,0.05,0.0
16,187,1113,-1,0.2,0.0
16,188,1730,1,0.2,0.5
16,189,2343,-1,0.5,0.35
16,190,1093,-1,0.35,0.2
16,191,5067,1,0.0,0.05
16,192,2320,-1,0.8,0.35
16,193,2060,-1,0.5,0.0
16,194,1437,-1,0.8,0.0
16,195,1630,1,0.0,0.0
16,196,2931,1,0.2,0.2
16,197,3606,-1,0.05,0.2
16,198,1686,1,0.05,0.35
16,199,1836,1,0.0,0.0
17,0,3613,1,0.05,1.4
17,1,2184,1,0.95,1.55
17,2,2622,1,1.4,1.85
17,3,2160,1,0.35,1.55
17,4,2022,-1,1.55,0.0
17,5,1503,-1,2.75,2.3
17,6,1644,-1,1.7,1.4
17,7,2063,1,0.65,1.85
17,8,5256,1,0.5,0.65
17,9,1899,1,0.0,1.7
17,10,2077,1,0.0,2.0
17,11,1437,-1,1.85,0.0
17,12,1179,-1,1.7,0.0
17,13,3993,1,0.0,0.0
17,14,2048,1,1.85,1.55
17,15,2449,-1,1.7,0.8
17,16,4422,1,1.25,1.7
17,17,2228,-1,2.0,0.35
17,18,1824,1,0.0,1.85
17,19,1981,1,1.55,1.55
17,20,1806,-1,1.55,0.95
17,21,5094,-1,0.0,0.0
17,22,4230,-1,0.35,0.2
17,23,1933,1,0.0,0.95
17,24,2190,-1,1.85,1.1
17,25,1817,1,2.0,1.7
17,26,1841,1,0.0,1.25
17,27,2065,-1,1.85,0.5
17,28,1862,-1,2.0,1.85
17,29,3807,-1,0.8,0.2
17,30,1309,-1,2.0,0.2
17,31,1948,1,1.7,1.85
17,32,1893,1,2.3,1.1
17,33,6052,1,0.35,0.8
17,34,2050,1,0.95,2.75
17,35,2261,1,2.0,1.7
17,36,1836,1,0.2,1.4
17,37,2129,1,0.0,0.8
17,38,6925,-1,1.1,1.1
17,39,1485,-1,1.85,1.55
17,80,7736,1,0.0,2.0
17,81,2374,1,0.65,0.5
17,82,4206,1,0.05,0.95
17,83,1951,1,2.3,2.75
17,84,3179,-1,1.55,0.35
17,85,1698,-1,1.1,2.3
17,86,1479,-1,1.55,0.95
17,87,2854,1,0.8,1.85
17,88,1524,-1,1.7,1.25
17,89,1705,1,1.55,0.8
17,90,2357,1,0.0,1.1
17,91,2471,1,0.8,1.85
17,92,1658,1,0.5,1.85
17,93,2018,1,1.55,1.7
17,94,2153,1,0.0,0.0
17,95,2505,-1,2.75,0.95
17,96,1749,-1,1.85,1.85
17,97,1330,-1,1.25,0.0
17,98,2261,1,0.0,1.7
17,99,1276,-1,0.8,0.0
17,100,1850,-1,1.7,2.0
17,101,1338,-1,1.85,0.65
17,102,1802,1,0.0,1.7
17,103,1548,-1,1.85,0.8
17,104,1653,1,1.1,2.0
17,105,1296,-1,1.55,1.55
17,106,2316,1,1.1,1.1
17,107,1800,1,0.0,1.55
17,108,1952,-1,2.0,0.0
17,109,2198,1,1.4,1.55
17,110,8469,1,2.0,1.85
17,111,3221,1,1.7,2.0
17,112,2501,1,0.0,0.95
17,113,3300,-1,0.0,0.0
17,114,2085,-1,1.4,0.05
17,115,2036,-1,1.7,0.0
17,116,2634,-1,1.55,1.85
17,117,1993,1,0.0,1.4
17,118,2085,1,1.4,1.7
17,119,2438,-1,0.8,0.8
17,160,2027,1,0.35,2.0
17,161,1926,-1,1.55,1.4
17,162,1072,-1,0.95,0.0
17,163,1082,-1,1.7,0.0
17,164,3030,-1,0.95,0.0
17,165,2328,1,0.0,0.0
17,166,1446,-1,1.85,1.4
17,167,2191,1,0.8,1.85
17,168,2558,-1,0.2,0.35
17,169,1858,1,0.2,2.0
17,170,7679,-1,0.0,0.0
17,171,2363,1,0.0,1.55
17,172,1292,-1,1.4,0.0
17,173,1551,1,1.55,1.85
17,174,1420,-1,2.0,0.0
17,175,3093,1,0.0,1.85
17,176,1745,-1,2.0,1.7
17,177,1592,-1,2.0,1.1
17,178,1259,-1,1.7,0.0
17,179,2554,-1,1.7,2.0
17,180,1967,1,1.7,1.55
17,181,1965,-1,1.85,2.0
17,182,1973,1,0.0,1.7
17,183,3087,1,0.95,1.55
17,184,1736,1,1.1,1.85
17,185,2558,-1,1.85,1.7
17,186,1717,1,1.85,1.85
17,187,2571,1,0.8,1.7
17,188,5917,-1,0.95,0.05
17,189,1422,-1,1.1,0.0
17,190,1736,1,0.8,0.8
17,191,1255,-1,1.85,0.8
17,192,2394,-1,1.85,0.8
17,193,1324,-1,1.55,0.0
17,194,1903,1,1.85,2.0
17,195,1909,1,0.2,0.8
17,196,1671,-1,1.4,0.2
17,197,1361,-1,0.8,1.55
17,198,1646,-1,0.8,0.35
17,199,1505,-1,1.85,0.0
18,40,2297,1,1.1,0.5
18,41,4812,1,0.65,0.35
18,42,5754,-1,0.95,0.8
18,43,2440,-1,0.65,0.5
18,44,1998,-1,0.5,0.5
18,45,2974,-1,0.8,0.8
18,46,2795,-1,0.8,0.5
18,47,2195,1,0.5,0.65
18,48,2399,1,0.8,0.65
18,49,2914,1,0.65,0.05
18,50,1593,-1,0.65,0.35
18,51,2069,1,0.35,0.5
18,52,2134,-1,0.35,0.2
18,53,2582,-1,0.65,0.65
18,54,2708,1,0.2,0.5
18,55,2144,-1,0.65,0.8
18,56,1796,1,0.5,0.35
18,57,1410,-1,0.35,1.1
18,58,3040,-1,0.35,0.65
18,59,1945,-1,0.5,0.5
18,60,2467,-1,0.95,0.5
18,61,2359,-1,0.5,0.35
18,62,3682,1,0.8,0.5
18,63,2236,-1,0.35,0.2
18,64,2354,-1,0.05,0.35
18,65,2460,1,0.5,0.5
18,66,1666,-1,0.95,0.65
18,67,1422,-1,0.65,0.35
18,68,1239,-1,1.4,0.5
18,69,2887,1,0.5,0.2
18,70,2156,-1,0.35,0.8
18,71,2944,1,1.25,0.5
18,72,2406,1,0.35,0.8
18,73,1488,-1,0.35,0.35
18,74,3311,1,0.0,0.95
18,75,1422,-1,0.65,0.65
18,76,1930,1,0.5,1.1
18,77,2048,1,0.8,0.35
18,78,3073,-1,0.2,0.5
18,79,2500,-1,0.2,0.8
18,120,3978,1,1.1,0.35
18,121,2441,1,0.8,0.8
18,122,3181,-1,0.35,0.35
18,123,2043,1,0.65,1.1
18,124,2880,1,0.2,0.35
18,125,2321,-1,0.8,0.2
18,126,1427,-1,0.65,1.1
18,127,1922,1,0.5,0.95
18,128,1869,1,0.5,1.4
18,129,1363,-1,0.35,0.65
18,130,2525,1,0.5,0.5
18,131,2899,1,0.5,1.1
18,132,2027,1,0.5,0.95
18,133,1536,1,0.65,0.95
18,134,2356,1,0.65,0.35
18,135,1644,1,1.1,0.5
18,136,1708,-1,0.35,0.8
18,137,2085,-1,0.65,0.2
18,138,1578,-1,1.1,0.5
18,139,1910,-1,0.35,0.5
18,140,1469,-1,0.35,0.5
18,141,3235,1,0.5,0.65
18,142,2905,1,1.4,0.5
18,143,2275,-1,0.5,0.0
18,144,1493,1,0.35,0.65
18,145,2797,-1,0.5,1.25
18,146,4786,-1,0.65,0.35
18,147,2506,1,0.35,0.2
18,148,3871,1,0.35,0.5
18,149,3057,1,0.2,0.5
18,150,2281,-1,0.2,0.5
18,151,2302,-1,0.5,0.8
18,152,1903,1,1.25,0.35
18,153,2072,1,0.35,0.95
18,154,2793,-1,0.95,0.8
18,155,1837,1,0.35,0.65
18,156,2656,1,0.05,0.65
18,157,9979,-1,0.2,0.35
18,158,3219,1,0.35,0.5
18,159,5373,1,0.8,0.65
18,200,4082,-1,0.5,0.2
18,201,2163,-1,1.1,0.65
18,202,2184,-1,0.5,0.2
18,203,3654,-1,0.5,0.35
18,204,2203,1,0.35,0.05
18,205,2279,1,0.8,0.35
18,206,2094,-1,0.95,0.5
18,207,1669,1,1.1,0.65
18,208,1528,1,0.65,0.35
18,209,2125,-1,0.35,0.5
18,210,1882,1,0.65,0.8
18,211,4247,-1,0.95,0.5
18,212,3677,1,0.0,0.5
18,213,4463,-1,0.65,0.65
18,214,1515,-1,0.5,1.1
18,215,1873,1,0.35,0.65
18,216,1803,1,0.8,0.95
18,217,2140,-1,0.65,0.8
18,218,2202,-1,0.8,0.95
18,219,1730,1,0.35,0.65
18,220,2233,1,0.5,0.5
18,221,1721,-1,0.35,1.25
18,222,2022,1,0.65,0.65
18,223,4752,-1,0.95,0.35
18,224,2086,1,0.2,0.8
18,225,1654,-1,0.65,0.5
18,226,1820,-1,0.5,1.4
18,227,2117,-1,0.8,0.2
18,228,5365,1,0.95,0.0
18,229,2423,-1,0.5,0.35
18,230,2918,1,0.5,0.35
18,231,2160,1,0.8,0.65
18,232,2741,-1,0.2,0.35
18,233,3160,-1,0.2,0.65
18,234,7142,1,0.5,0.2
18,235,1417,1,0.5,0.95
18,236,2151,1,0.5,0.35
18,237,2336,1,0.5,0.8
18,238,1830,-1,0.8,0.35
18,239,3016,-1,0.5,0.5
19,40,2332,-1,0.95,0.95
19,41,1728,1,0.95,2.0
19,42,1884,-1,1.1,0.95
19,43,2489,-1,0.95,0.95
19,44,1757,-1,2.15,1.55
19,45,1703,1,1.85,0.95
19,46,1493,1,1.55,0.95
19,47,1569,1,0.95,0.95
19,48,1847,1,1.55,2.0
19,49,3753,-1,1.55,1.1
19,50,1403,-1,2.15,0.8
19,51,2108,-1,0.95,1.1
19,52,1887,1,0.95,1.55
19,53,2060,1,0.95,0.95
19,54,1800,-1,0.95,1.1
19,55,1327,-1,2.0,0.65
19,56,1502,-1,0.95,0.95
19,57,1114,-1,0.95,1.4
19,58,1230,-1,2.0,1.55
19,59,1774,1,0.95,1.25
19,60,2306,-1,0.95,0.95
19,61,1324,-1,1.55,0.95
19,62,2261,1,0.95,0.95
19,63,1877,-1,0.95,0.95
19,64,1773,1,1.55,0.95
19,65,1635,-1,0.95,2.0
19,66,1422,1,2.0,0.95
19,67,1797,1,1.1,1.4
19,68,1751,1,0.95,2.0
19,69,2013,1,1.1,1.1
19,70,1426,-1,0.95,0.95
19,71,1467,-1,1.4,0.95
19,72,1364,-1,1.55,1.1
19,73,1782,1,0.65,0.95
19,74,1608,1,0.95,2.0
19,75,1415,-1,1.55,1.4
19,76,2360,-1,1.1,0.65
19,77,1688,-1,0.95,0.95
19,78,1489,-1,0.8,0.95
19,79,1995,-1,0.95,0.95
19,120,2148,1,1.55,0.95
19,121,1307,1,1.1,1.1
19,122,1535,-1,2.0,0.95
19,123,2116,1,0.95,0.95
19,124,2264,-1,1.85,1.25
19,125,1679,1,2.0,0.95
19,126,2243,-1,1.4,1.1
19,127,1498,1,0.95,1.1
19,128,2214,-1,0.95,0.95
19,129,1724,1,1.1,1.55
19,130,1512,1,1.4,0.95
19,131,1322,-1,0.95,1.55
19,132,1100,-1,0.95,0.95
19,133,2397,-1,2.0,0.95
19,134,2282,1,0.8,0.65
19,135,1196,-1,1.4,0.95
19,136,2025,1,0.95,0.95
19,137,1482,-1,0.95,2.0
19,138,1772,1,0.95,0.95
19,139,1829,1,0.95,0.95
19,140,1728,1,0.95,0.95
19,141,1233,-1,0.95,0.5
19,142,1449,1,1.1,0.95
19,143,1402,-1,0.95,0.65
19,144,1352,-1,0.95,1.4
19,145,1239,-1,1.1,1.1
19,146,1716,-1,0.95,2.0
19,147,1396,1,1.1,0.95
19,148,1462,1,1.55,1.4
19,149,1483,1,0.95,0.95
19,150,1558,1,0.95,1.1
19,151,1998,1,1.4,0.95
19,152,1556,1,0.5,1.55
19,153,1100,-1,1.4,1.4
19,154,1670,1,0.8,1.1
19,155,2746,-1,1.55,0.95
19,156,1332,-1,0.95,1.1
19,157,1445,1,1.55,2.0
19,158,1617,1,0.95,1.4
19,159,1723,1,0.95,1.55
19,200,1738,1,0.5,0.95
19,201,1660,1,0.95,0.8
19,202,1915,1,1.4,0.95
19,203,1421,1,0.95,0.95
19,204,3423,1,2.0,0.95
19,205,1133,-1,1.1,0.8
19,206,1415,1,1.25,1.85
19,207,2034,1,0.95,2.0
19,208,1261,-1,0.95,1.55
19,209,1214,1,0.95,1.55
19,210,1220,-1,0.95,0.95
19,211,1657,-1,1.4,1.55
19,212,1444,1,1.4,1.55
19,213,1282,-1,1.55,0.95
19,214,2040,1,0.65,1.1
19,215,1723,-1,2.0,1.55
19,216,1385,-1,1.1,0.95
19,217,1563,1,0.95,0.95
19,218,2138,1,0.95,0.95
19,219,1766,1,0.65,2.0
19,220,1768,1,0.95,1.4
19,221,1306,1,1.1,1.1
19,222,1390,1,0.95,1.4
19,223,1362,1,0.95,0.95
19,224,1327,-1,0.65,0.8
19,225,1049,-1,0.95,0.95
19,226,1424,1,1.55,2.15
19,227,1230,1,0.95,0.95
19,228,1473,1,0.95,1.55
19,229,1314,-1,1.1,1.55
19,230,1172,-1,1.25,0.95
19,231,1480,1,0.95,0.95
19,232,1292,1,1.4,1.4
19,233,1714,-1,1.55,0.5
19,234,1573,-1,0.95,1.85
19,235,3284,-1,2.0,0.95
19,236,823,1,0.8,2.15
19,237,1164,-1,0.95,0.95
19,238,1663,1,1.1,0.95
19,239,1361,-1,2.0,0.95
20,40,2166,-1,1.1,0.45
20,41,4390,1,0.8,0.8
20,42,2062,1,0.8,0.8
20,43,4324,1,0.35,0.8
20,44,4448,-1,0.3,0.5
20,45,2694,1,0.5,1.1
20,46,1950,1,0.35,1.1
20,47,9842,1,0.8,0.95
20,48,4513,1,0.5,0.65
20,49,2136,1,0.5,0.8
20,50,2124,-1,1.55,0.0
20,51,4294,-1,0.5,0.0
20,52,4598,-1,0.65,0.8
20,53,1695,-1,1.1,0.8
20,54,2258,1,0.5,0.35
20,55,1984,-1,0.95,0.8
20,56,2651,-1,0.5,1.1
20,57,9449,1,0.5,1.1
20,58,7442,1,1.1,0.95
20,59,2865,-1,0.95,0.0
20,60,5971,1,1.25,0.65
20,61,5689,-1,0.8,0.35
20,62,2156,-1,0.95,0.65
20,63,1835,-1,0.95,0.5
20,64,2890,1,0.35,1.4
20,65,6698,1,0.5,0.3
20,66,2652,1,0.95,1.1
20,67,4481,1,0.3,0.95
20,68,4590,1,1.4,1.1
20,69,2529,-1,1.1,0.0
20,70,4333,1,0.35,0.8
20,71,4723,-1,1.55,0.95
20,72,4995,1,1.1,1.4
20,73,3351,1,0.35,0.65
20,74,4356,1,0.95,0.3
20,75,3812,-1,1.1,0.8
20,76,2687,-1,0.8,0.0
20,77,2814,1,0.8,1.4
20,78,11149,-1,0.95,1.1
20,79,2857,-1,0.8,0.35
20,120,2340,-1,0.35,0.5
20,121,2996,-1,0.95,0.8
20,122,3176,-1,0.95,1.1
20,123,1750,-1,1.4,1.1
20,124,3439,1,1.1,0.5
20,125,1569,-1,0.8,0.8
20,126,3036,-1,0.3,0.5
20,127,1645,-1,0.95,0.5
20,128,6142,-1,0.8,1.1
20,129,3802,-1,1.4,1.1
20,130,1826,1,0.0,0.5
20,131,4301,1,0.8,1.1
20,132,2606,-1,0.95,1.1
20,133,3080,-1,0.95,1.25
20,134,5943,-1,1.25,0.65
20,135,1647,-1,0.8,0.35
20,136,1917,-1,1.1,1.25
20,137,1930,1,0.95,1.55
20,138,3327,1,0.35,0.95
20,139,1706,-1,0.65,1.1
20,140,6091,1,0.65,0.95
20,141,2498,1,0.5,1.4
20,142,1582,1,0.5,0.95
20,143,3169,1,0.65,0.65
20,144,5454,1,0.5,0.5
20,145,3277,1,0.5,0.3
20,146,1904,1,0.8,0.65
20,147,1386,-1,1.1,0.35
20,148,3081,-1,0.95,0.3
20,149,1658,1,0.0,0.65
20,150,1879,1,0.0,1.55
20,151,2136,-1,1.4,0.8
20,152,6372,1,0.5,1.1
20,153,3062,-1,0.65,0.45
20,154,1889,-1,0.8,0.5
20,155,3898,-1,0.35,0.8
20,156,1916,-1,0.65,0.35
20,157,1569,-1,1.1,0.5
20,158,2240,1,0.35,0.5
20,159,1611,1,0.45,1.1
20,200,2077,-1,1.4,0.35
20,201,1471,-1,0.65,0.0
20,202,2810,1,1.1,1.4
20,203,2418,1,1.1,0.95
20,204,2539,-1,1.4,0.5
20,205,1950,-1,0.8,0.35
20,206,2047,1,1.1,0.95
20,207,1390,1,0.5,0.95
20,208,6161,1,1.1,0.8
20,209,2722,1,0.8,0.35
20,210,3171,-1,0.65,1.25
20,211,3857,1,0.65,0.95
20,212,3022,-1,0.95,0.65
20,213,1856,1,0.8,1.1
20,214,2536,-1,0.65,0.65
20,215,2274,-1,1.1,0.5
20,216,2358,1,0.8,0.95
20,217,2207,1,0.8,1.1
20,218,1585,1,1.1,0.65
20,219,3072,1,0.0,0.8
20,220,1605,-1,0.8,0.35
20,221,1638,-1,0.5,0.35
20,222,1612,1,0.45,0.65
20,223,3207,1,0.0,1.1
20,224,1810,1,0.35,0.8
20,225,2554,1,0.35,0.8
20,226,1389,-1,1.1,0.95
20,227,1385,1,0.0,0.95
20,228,2947,-1,1.1,0.8
20,229,3629,-1,0.95,0.35
20,230,1871,1,0.35,0.8
20,231,2361,-1,0.3,0.95
20,232,2423,1,0.65,1.25
20,233,1515,-1,1.1,0.5
20,234,1676,1,1.25,1.1
20,235,4381,-1,0.8,0.8
20,236,5454,-1,0.5,0.5
20,237,4313,-1,0.65,0.5
20,238,4109,1,1.25,0.95
20,239,3560,-1,1.1,1.4
21,0,12034,-1,1.1,1.1
21,1,14157,1,0.0,0.35
21,2,4163,1,0.95,0.8
21,3,6916,-1,1.1,0.65
21,4,11792,1,0.65,2.0
21,5,4040,1,0.95,0.5
21,6,6381,1,1.25,0.35
21,7,4779,-1,0.8,0.5
21,8,3639,-1,1.4,0.0
21,9,5037,-1,2.0,1.55
21,10,5566,1,0.65,1.4
21,11,11800,-1,0.65,0.8
21,12,3849,1,1.1,1.4
21,13,10563,-1,1.25,2.0
21,14,9338,1,0.5,1.1
21,15,4573,1,0.8,1.1
21,16,3910,1,0.0,1.1
21,17,9826,-1,0.65,0.95
21,18,4236,1,1.55,0.95
21,19,3490,1,0.0,0.65
21,20,6885,1,0.65,0.65
21,21,4994,1,1.1,0.95
21,22,4121,1,1.25,0.95
21,23,4757,-1,1.55,0.35
21,24,10833,-1,0.35,0.8
21,25,2906,1,1.1,1.1
21,26,5248,-1,0.8,0.8
21,27,9082,1,1.4,0.95
21,28,5486,-1,1.4,0.95
21,29,6309,1,1.55,1.85
21,30,5442,-1,1.4,0.8
21,31,8152,-1,0.8,1.25
21,32,3788,-1,1.25,0.35
21,33,6541,1,0.65,1.25
21,34,3275,1,1.25,1.4
21,35,3104,1,0.65,2.0
21,36,18855,1,0.95,0.8
21,37,3183,1,0.8,1.4
21,38,2348,1,0.35,0.65
21,39,3867,-1,0.95,0.65
21,80,3245,1,1.25,1.85
21,81,5833,-1,1.85,1.55
21,82,3560,-1,2.0,0.65
21,83,5873,-1,1.1,0.8
21,84,2132,-1,0.65,0.0
21,85,3637,-1,0.8,0.65
21,86,3744,1,2.0,0.65
21,87,4117,-1,1.85,0.5
21,88,4000,1,1.1,0.5
21,89,3576,-1,0.65,0.35
21,90,8449,-1,0.8,0.8
21,91,5588,1,0.65,1.1
21,92,3640,-1,0.95,1.1
21,93,4100,-1,1.4,1.55
21,94,2749,1,0.8,0.5
21,95,3314,1,0.95,0.5
21,96,3039,1,0.65,0.95
21,97,7761,1,0.8,0.65
21,98,3861,1,0.95,1.55
21,99,5059,-1,1.4,1.1
21,100,5871,-1,1.4,0.8
21,101,4735,-1,1.25,0.8
21,102,6461,1,2.0,1.25
21,103,5165,1,0.35,1.55
21,104,5425,-1,0.95,0.65
21,105,3315,1,0.8,1.85
21,106,2635,1,0.8,1.4
21,107,10420,-1,1.4,2.0
21,108,8371,-1,0.5,0.65
21,109,2120,1,0.35,1.25
21,110,2861,1,1.1,1.1
21,111,4752,-1,0.95,1.4
21,112,2226,1,1.1,0.8
21,113,5255,-1,0.35,0.0
21,114,2400,1,0.95,1.25
21,115,3716,1,0.0,1.1
21,116,1837,1,1.55,2.0
21,117,4758,-1,0.8,0.0
21,118,3912,-1,1.1,0.5
21,119,3338,1,0.0,1.4
21,160,6098,-1,1.85,0.8
21,161,3291,-1,0.8,0.95
21,162,1720,-1,0.8,0.95
21,163,2829,-1,0.95,1.55
21,164,3359,1,1.1,1.4
21,165,3770,-1,1.1,1.1
21,166,4960,-1,1.55,0.95
21,167,2969,-1,0.5,1.1
21,168,3282,-1,1.4,1.1
21,169,4369,-1,1.25,0.65
21,170,2329,1,0.65,0.8
21,171,4872,1,2.0,1.4
21,172,2227,1,0.65,0.5
21,173,3280,-1,1.85,1.25
21,174,2609,-1,1.25,0.95
21,175,1665,1,0.95,1.4
21,176,3929,1,0.65,0.95
21,177,3471,1,0.95,0.65
21,178,3116,1,0.8,1.4
21,179,3000,-1,0.8,1.1
21,180,3541,1,0.8,0.35
21,181,1532,-1,0.5,0.8
21,182,5023,-1,0.35,1.25
21,183,2311,-1,2.0,0.65
21,184,1339,-1,0.5,0.95
21,185,3697,-1,0.5,0.95
21,186,1828,-1,1.1,0.0
21,187,2908,1,1.25,0.8
21,188,3996,-1,0.65,2.0
21,189,1831,1,0.0,0.8
21,190,2910,1,0.8,1.25
21,191,3252,-1,0.95,1.25
21,192,4456,1,0.5,1.85
21,193,3181,1,0.5,0.8
21,194,4799,-1,1.4,1.25
21,195,2086,-1,1.4,0.8
21,196,1923,-1,1.4,0.65
21,197,4144,-1,0.65,0.65
21,198,3303,1,1.55,1.4
21,199,1059,-1,1.1,0.0
22,40,2559,-1,0.65,0.65
22,41,3243,1,0.5,0.65
22,42,2064,1,0.05,0.65
22,43,4385,-1,0.35,0.5
22,44,2118,-1,0.65,0.0
22,45,1625,1,0.8,0.8
22,46,1755,-1,0.65,0.95
22,47,1526,1,0.5,0.65
22,48,2642,-1,0.0,0.05
22,49,2526,1,0.5,0.35
22,50,4037,1,0.05,0.2
22,51,1939,-1,1.1,0.35
22,52,1916,1,0.5,0.8
22,53,1520,1,0.65,0.95
22,54,1673,-1,0.5,0.95
22,55,2184,1,0.35,0.2
22,56,1556,1,0.65,0.65
22,57,1668,1,0.65,1.1
22,58,2674,-1,0.65,0.5
22,59,2013,1,0.5,0.65
22,60,6841,1,0.65,0.65
22,61,2224,1,0.5,0.65
22,62,1369,-1,0.8,0.35
22,63,1528,1,0.05,1.4
22,64,2351,-1,0.65,0.0
22,65,1293,1,0.5,0.35
22,66,1543,1,0.35,0.8
22,67,1941,-1,0.8,0.5
22,68,1335,-1,0.5,0.5
22,69,3715,1,0.5,0.35
22,70,4297,-1,0.65,0.2
22,71,1281,-1,1.4,0.8
22,72,1403,-1,0.8,0.0
22,73,1498,-1,0.65,0.2
22,74,1174,1,0.5,1.4
22,75,1038,-1,0.5,0.5
22,76,1214,1,0.65,0.5
22,77,4034,1,0.95,0.65
22,78,1700,1,0.0,0.35
22,79,3601,-1,0.2,0.35
22,120,3267,-1,0.65,0.95
22,121,1221,-1,0.65,0.35
22,122,1337,-1,0.65,0.2
22,123,1500,1,1.25,0.8
22,124,1997,-1,0.65,0.5
22,125,1388,-1,0.65,0.05
22,126,1224,-1,0.5,0.5
22,127,1999,-1,0.65,0.65
22,128,1633,1,0.5,0.8
22,129,2524,1,0.2,0.65
22,130,1251,-1,1.4,0.5
22,131,1523,-1,1.25,0.35
22,132,1481,-1,0.2,0.05
22,133,1757,1,0.65,0.65
22,134,1123,-1,0.65,0.35
22,135,1156,-1,0.5,0.2
22,136,927,-1,0.35,0.0
22,137,2162,-1,0.0,0.5
22,138,1155,1,0.0,0.8
22,139,1423,-1,0.65,0.65
22,140,1274,1,0.5,0.5
22,141,1634,-1,0.35,0.0
22,142,1141,1,0.35,1.1
22,143,1302,-1,0.8,0.65
22,144,1112,1,0.35,1.25
22,145,1050,1,0.5,0.95
22,146,2794,1,0.35,0.5
22,147,1329,-1,0.95,0.0
22,148,1740,1,0.5,0.35
22,149,1077,-1,1.1,0.65
22,150,1823,-1,0.65,0.2
22,151,1159,1,0.5,0.65
22,152,1891,1,0.0,0.65
22,153,1298,-1,0.8,0.8
22,154,1424,1,0.0,0.65
22,155,1129,1,0.5,0.5
22,156,4300,-1,0.65,0.35
22,157,3121,1,0.65,0.5
22,158,1119,1,0.2,0.65
22,159,960,1,1.25,1.4
22,200,2644,-1,0.65,0.65
22,201,1012,-1,0.35,0.65
22,202,1117,-1,0.8,1.4
22,203,2202,-1,0.05,0.0
22,204,1343,1,0.65,0.65
22,205,1163,1,0.0,0.35
22,206,937,1,0.35,0.8
22,207,1255,-1,1.4,0.05
22,208,1188,1,0.35,1.25
22,209,1202,1,0.5,0.5
22,210,1068,-1,0.95,0.65
22,211,2115,-1,0.35,0.5
22,212,1856,1,0.35,0.2
22,213,1099,1,0.65,0.65
22,214,1082,1,0.95,0.65
22,215,1929,-1,0.5,0.5
22,216,944,1,0.2,0.65
22,217,1935,1,0.65,0.5
22,218,1143,1,0.2,0.35
22,219,996,-1,0.5,0.65
22,220,1288,1,0.2,0.65
22,221,1237,-1,0.8,1.25
22,222,2282,-1,0.35,0.65
22,223,964,-1,1.4,1.25
22,224,1414,1,0.65,0.8
22,225,757,1,0.2,0.5
22,226,1569,1,0.0,0.95
22,227,1043,1,0.95,0.5
22,228,2245,-1,0.35,0.5
22,229,1452,1,0.35,0.65
22,230,1411,-1,1.25,0.35
22,231,2792,-1,0.5,0.0
22,232,1076,-1,0.8,0.35
22,233,1366,-1,0.65,0.5
22,234,1130,1,0.5,0.5
22,235,1282,1,0.5,0.65
22,236,1450,-1,0.65,0.65
22,237,990,-1,0.65,0.5
22,238,1119,-1,0.95,0.5
22,239,2234,-1,0.8,0.5
23,40,3425,-1,1.95,0.8
23,41,5439,-1,0.65,0.5
23,42,1720,-1,0.95,1.4
23,43,1913,-1,1.55,1.25
23,44,4599,1,0.65,0.65
23,45,2175,1,0.5,0.65
23,46,2743,1,1.1,0.95
23,47,5296,-1,0.8,1.1
23,48,2112,-1,1.55,0.2
23,49,1486,-1,0.8,1.1
23,50,2069,-1,1.1,0.2
23,51,65,1,1.1,0.35
23,52,3369,1,0.8,0.95
23,53,1853,-1,0.65,0.35
23,54,3303,1,0.2,0.95
23,55,2046,-1,1.4,0.8
23,56,5054,-1,0.8,0.2
23,57,2309,-1,1.55,0.8
23,58,2822,-1,0.5,1.1
23,59,7363,-1,1.1,0.8
23,60,2208,1,0.5,0.95
23,61,2087,1,0.5,1.55
23,62,4382,1,1.1,1.95
23,63,6362,-1,0.95,1.1
23,64,3137,-1,0.95,0.65
23,65,2547,-1,1.1,1.85
23,66,1826,-1,1.25,1.1
23,67,2485,1,0.8,0.8
23,68,5900,1,0.65,1.25
23,69,2514,1,2.45,0.95
23,70,1918,-1,1.25,0.8
23,71,2565,-1,1.25,0.95
23,72,2913,1,1.1,0.95
23,73,1810,1,1.1,1.25
23,74,2227,1,0.2,1.4
23,75,2948,-1,0.35,0.5
23,76,1909,-1,0.5,1.1
23,77,2377,-1,0.95,0.5
23,78,6149,1,0.65,1.1
23,79,3803,1,0.5,0.95
23,120,5183,-1,1.25,1.1
23,121,1494,-1,1.4,1.1
23,122,1966,1,0.8,1.55
23,123,2533,-1,0.8,0.8
23,124,2525,1,0.95,0.65
23,125,4740,-1,1.1,0.95
23,126,2226,1,0.65,0.5
23,127,3155,1,0.95,1.1
23,128,3204,1,0.8,0.5
23,129,3779,-1,1.25,0.95
23,130,2695,-1,1.55,1.1
23,131,2907,1,1.1,1.25
23,132,1869,1,0.95,0.95
23,133,2805,-1,0.8,0.8
23,134,6932,-1,1.25,0.65
23,135,1250,1,0.8,1.4
23,136,3460,1,0.65,1.4
23,137,3171,-1,0.5,0.95
23,138,2860,1,2.45,0.65
23,139,1776,1,1.25,1.55
23,140,1836,1,0.2,0.8
23,141,1614,-1,1.85,0.95
23,142,3235,1,0.8,1.25
23,143,1335,-1,1.1,0.35
23,144,1454,1,0.8,1.95
23,145,3421,1,0.5,0.65
23,146,2655,1,0.8,1.1
23,147,2018,1,0.65,0.65
23,148,1515,-1,0.65,0.95
23,149,1509,-1,0.35,1.1
23,150,1696,-1,1.1,0.5
23,151,3518,-1,1.25,0.5
23,152,2809,1,0.8,1.1
23,153,2136,1,1.1,0.65
23,154,1685,-1,1.4,0.95
23,155,2499,1,0.2,1.1
23,156,5675,1,0.5,0.95
23,157,1740,-1,1.95,1.1
23,158,1411,-1,1.25,1.1
23,159,2134,-1,1.1,1.4
23,200,7350,-1,0.95,1.1
23,201,3333,1,0.8,0.2
23,202,3419,-1,1.1,0.8
23,203,2172,-1,0.5,0.35
23,204,3181,1,0.95,0.2
23,205,2633,-1,1.4,0.65
23,206,6330,1,0.95,0.8
23,207,2330,1,0.95,1.25
23,208,7503,1,1.1,0.95
23,209,2384,-1,0.65,0.95
23,210,2130,1,0.95,0.65
23,211,3240,1,0.95,0.5
23,212,2495,-1,0.95,2.45
23,213,1922,1,1.1,1.55
23,214,2705,-1,0.5,0.8
23,215,1954,1,0.8,0.8
23,216,3054,-1,0.95,0.95
23,217,3337,-1,1.4,0.2
23,218,1650,1,1.4,1.1
23,219,1741,-1,1.85,1.1
23,220,2306,1,1.1,1.4
23,221,5150,-1,1.1,1.25
23,222,2078,1,1.1,0.8
23,223,2328,-1,1.55,1.25
23,224,2194,1,0.2,0.8
23,225,2378,-1,1.55,0.5
23,226,8308,1,0.2,1.55
23,227,2344,1,0.95,1.1
23,228,6825,-1,1.1,0.5
23,229,3431,-1,0.95,0.5
23,230,1966,1,0.95,0.5
23,231,1945,1,0.5,1.25
23,232,3135,1,0.35,1.1
23,233,3539,-1,0.65,0.95
23,234,2596,1,0.35,0.65
23,235,1476,1,0.65,2.45
23,236,5114,1,1.25,1.55
23,237,2925,1,1.1,0.8
23,238,2235,1,0.95,1.85
23,239,2440,1,0.95,1.25
24,0,7111,1,0.5,1.4
24,1,33945,1,1.25,1.7
24,2,6109,1,0.35,0.95
24,3,3374,1,0.5,0.95
24,4,4336,1,0.8,1.1
24,5,2956,1,0.5,0.95
24,6,7367,-1,1.1,0.95
24,7,4784,1,0.95,1.4
24,8,2772,1,0.0,2.15
24,9,10124,1,1.55,0.95
24,10,11435,-1,1.1,0.65
24,11,11269,-1,2.3,1.4
24,12,9419,1,1.4,1.85
24,13,3909,-1,1.1,0.35
24,14,8187,1,0.8,0.8
24,15,19172,-1,1.25,0.8
24,16,15773,1,1.1,1.1
24,17,3452,-1,2.6,0.5
24,18,6223,1,1.25,1.1
24,19,3892,-1,1.1,0.0
24,20,3361,-1,1.1,1.1
24,21,7343,-1,0.8,1.25
24,22,2755,1,0.5,0.95
24,23,3256,1,0.8,0.8
24,24,2297,-1,1.1,0.0
24,25,7873,1,0.35,0.8
24,26,4704,-1,2.6,1.1
24,27,2886,1,0.5,1.7
24,28,2563,-1,0.95,1.4
24,29,2995,1,0.0,0.65
24,30,20658,-1,0.8,1.25
24,31,12138,-1,1.1,1.1
24,32,2992,1,0.5,0.5
24,33,1949,-1,0.95,0.0
24,34,4130,1,0.35,0.5
24,35,8735,1,1.1,0.35
24,36,5870,-1,1.4,0.8
24,37,3969,1,0.95,1.1
24,38,6710,1,0.8,2.45
24,39,14859,1,2.15,1.1
24,80,8041,-1,0.35,1.1
24,81,3066,-1,0.35,0.65
24,82,4360,-1,1.7,1.25
24,83,3496,1,0.15,1.4
24,84,2890,1,1.1,1.55
24,85,9437,1,0.0,0.5
24,86,3401,-1,2.15,0.0
24,87,4197,-1,0.8,0.8
24,88,7472,1,0.65,1.25
24,89,2349,-1,1.1,0.95
24,90,2884,-1,0.95,0.5
24,91,4860,1,1.1,1.1
24,92,2922,-1,2.45,0.8
24,93,2108,-1,0.8,0.8
24,94,2857,-1,0.5,0.35
24,95,1291,1,1.1,2.6
24,96,1437,1,0.35,2.3
24,97,3857,1,1.1,1.4
24,98,4732,-1,1.55,0.35
24,99,2303,1,0.5,1.1
24,100,7581,-1,1.2,0.35
24,101,1926,-1,0.65,0.0
24,102,6325,-1,2.45,1.2
24,103,2120,1,0.35,1.1
24,104,1299,-1,1.25,0.5
24,105,1343,-1,0.95,0.5
24,106,2568,1,0.8,0.8
24,107,1847,1,1.25,1.55
24,108,1827,-1,1.7,0.5
24,109,1786,1,0.8,1.4
24,110,2415,-1,0.65,0.35
24,111,7703,1,1.25,0.8
24,112,3096,1,1.4,2.3
24,113,11118,1,1.1,1.1
24,114,6112,1,0.65,1.85
24,115,3894,-1,0.8,1.1
24,116,1440,1,0.5,2.6
24,117,6536,1,1.25,0.8
24,118,3515,-1,0.35,0.15
24,119,3909,-1,1.25,1.25
24,160,3685,1,0.35,1.55
24,161,1695,-1,0.95,0.35
24,162,3089,-1,1.55,1.1
24,163,2639,-1,1.4,0.15
24,164,3832,-1,0.5,0.0
24,165,2612,1,0.65,0.35
24,166,1435,1,0.0,0.95
24,167,2264,-1,1.55,1.25
24,168,1891,-1,1.85,0.65
24,169,2106,-1,1.4,0.95
24,170,1525,1,0.5,1.25
24,171,3216,-1,1.4,1.1
24,172,2630,1,0.0,1.1
24,173,1993,-1,1.85,1.4
24,174,3829,1,1.25,1.25
24,175,5505,-1,1.4,0.5
24,176,1725,-1,0.95,0.5
24,177,1876,-1,2.3,0.35
24,178,2562,1,1.4,0.95
24,179,3448,1,0.35,0.65
24,180,4481,-1,1.25,0.65
24,181,6133,1,0.95,1.1
24,182,2596,1,0.8,1.25
24,183,4222,-1,1.1,0.8
24,184,2615,1,0.35,1.1
24,185,4245,1,0.65,1.1
24,186,8924,-1,1.1,2.15
24,187,6909,1,0.35,1.2
24,188,2951,1,1.2,2.45
24,189,8714,-1,0.95,1.55
24,190,2416,1,0.15,0.35
24,191,6034,1,1.1,0.8
24,192,3032,-1,1.1,0.5
24,193,2906,-1,0.8,0.35
24,194,2047,-1,1.1,0.35
24,195,1822,1,0.0,1.1
24,196,1918,-1,0.8,0.8
24,197,2955,-1,0.5,0.5
24,198,3366,-1,1.1,1.25
24,199,10736,1,1.1,1.1
25,0,1908,1,0.95,0.5
25,1,2481,-1,0.8,0.95
25,2,2880,1,1.4,0.95
25,3,3793,1,0.2,0.35
25,4,1333,-1,0.8,0.6
25,5,2692,-1,1.1,0.95
25,6,2027,1,0.5,0.95
25,7,4022,-1,0.2,0.35
25,8,2724,1,0.95,1.1
25,9,6172,1,0.0,0.8
25,10,1983,1,0.0,0.95
25,11,1697,1,0.5,1.1
25,12,3018,-1,0.5,0.0
25,13,1783,1,0.95,0.5
25,14,1604,1,0.8,1.1
25,15,2207,-1,0.65,0.0
25,16,2674,1,0.0,1.25
25,17,2506,1,0.95,0.8
25,18,2316,1,0.35,1.1
25,19,3242,-1,0.95,0.35
25,20,2655,-1,0.8,1.1
25,21,3082,-1,0.0,0.0
25,22,1720,1,0.6,1.1
25,23,2461,-1,0.5,0.05
25,24,6341,-1,0.0,1.1
25,25,9649,-1,1.1,0.2
25,26,1898,-1,0.95,0.2
25,27,5674,-1,0.8,0.35
25,28,2794,-1,1.25,0.5
25,29,2199,1,0.05,1.4
25,30,2170,-1,0.8,0.0
25,31,2342,-1,0.5,0.5
25,32,2132,-1,0.95,0.0
25,33,4164,-1,0.5,0.95
25,34,2830,1,0.0,0.5
25,35,1766,-1,1.1,0.95
25,36,3317,-1,1.55,1.1
25,37,2749,-1,0.8,0.5
25,38,1951,-1,0.95,0.95
25,39,2361,-1,0.95,0.35
25,80,3815,-1,0.5,0.0
25,81,1665,-1,0.95,0.05
25,82,1689,1,0.2,0.95
25,83,5042,1,0.95,1.1
25,84,4536,1,0.95,0.8
25,85,1787,1,0.5,0.8
25,86,2262,-1,0.0,0.0
25,87,2005,-1,0.8,0.8
25,88,1956,1,0.35,0.2
25,89,4505,1,0.8,1.4
25,90,2231,-1,0.2,0.5
25,91,1416,1,0.5,0.5
25,92,1551,1,0.2,0.95
25,93,2011,-1,0.8,0.0
25,94,4379,1,0.35,0.8
25,95,1423,1,0.95,1.25
25,96,4833,-1,1.1,0.95
25,97,1374,1,0.0,0.65
25,98,3115,1,0.8,0.8
25,99,1793,1,0.95,0.8
25,100,6910,-1,0.8,0.5
25,101,1563,1,0.0,0.5
25,102,8355,1,0.2,1.1
25,103,1516,-1,0.8,0.5
25,104,1940,-1,0.5,0.0
25,105,2299,-1,1.4,0.0
25,106,10498,1,1.1,0.0
25,107,1778,-1,0.65,1.55
25,108,5679,1,1.25,0.8
25,109,1858,-1,0.95,1.4
25,110,2113,-1,1.1,0.0
25,111,1471,-1,1.25,0.0
25,112,1922,1,0.5,1.25
25,113,1529,-1,0.5,0.95
25,114,1665,-1,1.1,0.2
25,115,5554,-1,1.1,0.8
25,116,1369,1,0.0,0.95
25,117,4034,1,0.35,0.95
25,118,9257,1,0.95,1.1
25,119,4504,-1,0.2,0.05
25,160,2617,1,1.1,0.8
25,161,1412,-1,0.95,0.5
25,162,1448,-1,0.8,1.25
25,163,1230,-1,1.25,0.95
25,164,1114,1,0.0,1.1
25,165,1330,1,0.0,0.0
25,166,1927,1,0.05,0.5
25,167,1582,-1,0.5,0.95
25,168,1601,1,1.1,1.55
25,169,1302,1,0.35,0.95
25,170,6536,1,0.8,0.8
25,171,4034,1,1.4,0.8
25,172,4188,-1,0.95,0.5
25,173,1462,-1,1.4,0.05
25,174,1970,-1,0.0,0.8
25,175,1820,1,0.5,0.5
25,176,8302,1,0.05,0.2
25,177,1882,-1,1.1,0.35
25,178,1358,-1,0.8,0.8
25,179,2853,1,0.0,0.0
25,180,2021,-1,1.1,0.6
25,181,1297,1,0.0,0.5
25,182,2395,1,0.95,1.1
25,183,1599,1,0.95,0.95
25,184,8105,-1,0.35,0.2
25,185,1357,-1,0.5,0.5
25,186,2938,-1,1.1,0.95
25,187,6266,-1,0.8,0.95
25,188,1891,-1,0.8,0.95
25,189,2233,-1,0.95,0.2
25,190,1721,1,0.6,0.8
25,191,1578,1,0.2,1.1
25,192,1220,1,0.0,1.4
25,193,1242,-1,1.1,0.5
25,194,1366,1,1.55,0.65
25,195,3508,1,0.05,0.95
25,196,1436,-1,0.5,0.2
25,197,1395,1,0.5,0.8
25,198,1369,-1,0.95,0.0
25,199,1110,1,0.5,0.8
26,40,3437,-1,1.7,2.0
26,41,1574,-1,0.65,0.8
26,42,1841,1,0.0,0.65
26,43,1472,-1,0.95,1.55
26,44,6201,1,0.95,0.65
26,45,1767,-1,0.65,0.5
26,46,4353,1,1.55,0.2
26,47,3805,-1,0.65,0.65
26,48,9779,-1,2.0,1.1
26,49,2370,1,1.1,1.1
26,50,4067,-1,0.65,0.65
26,51,2046,1,0.0,1.1
26,52,1872,1,0.95,0.95
26,53,1321,-1,1.1,0.45
26,54,1820,-1,0.8,0.5
26,55,4067,-1,0.65,0.5
26,56,2871,-1,0.95,0.0
26,57,3271,-1,0.65,0.65
26,58,2083,-1,1.1,1.55
26,59,3472,-1,1.1,0.65
26,60,2244,-1,0.65,0.8
26,61,3108,-1,0.5,0.0
26,62,2437,-1,0.65,1.1
26,63,3956,1,0.5,0.8
26,64,2942,-1,1.1,0.65
26,65,1276,-1,0.65,0.5
26,66,1420,1,0.65,0.95
26,67,3350,1,1.55,1.1
26,68,1907,-1,0.95,0.5
26,69,2669,1,0.5,2.0
26,70,3838,1,0.65,1.25
26,71,2640,1,1.55,0.65
26,72,2521,-1,1.1,0.95
26,73,3303,1,0.95,0.15
26,74,1862,1,0.65,0.65
26,75,1604,-1,0.15,0.5
26,76,3223,-1,1.55,0.8
26,77,2036,-1,0.8,1.1
26,78,12426,-1,0.65,1.1
26,79,1264,-1,0.65,1.1
26,120,1838,1,0.5,0.15
26,121,2049,1,0.5,0.65
26,122,1727,-1,0.95,0.65
26,123,2123,1,0.5,2.0
26,124,3190,-1,0.95,0.95
26,125,1249,-1,0.95,1.1
26,126,1464,1,2.0,1.7
26,127,1786,1,0.5,1.7
26,128,4234,-1,1.25,0.65
26,129,3708,1,0.5,0.65
26,130,2749,1,1.55,0.65
26,131,1355,-1,0.8,1.25
26,132,2420,-1,0.65,0.5
26,133,2499,1,0.0,1.55
26,134,5827,1,2.0,0.65
26,135,2056,1,0.0,0.5
26,136,1957,1,1.1,0.65
26,137,2253,1,0.5,0.65
26,138,1630,-1,0.65,0.45
26,139,2189,-1,2.0,1.55
26,140,1313,1,0.8,0.65
26,141,1860,-1,1.1,1.55
26,142,2395,-1,0.65,0.95
26,143,1563,1,0.95,0.65
26,144,4231,1,0.5,1.55
26,145,7328,-1,0.0,0.95
26,146,1742,1,0.95,1.1
26,147,2905,1,1.1,0.65
26,148,2894,1,0.8,1.55
26,149,2021,-1,0.15,0.95
26,150,2253,1,0.0,0.2
26,151,2382,-1,0.65,1.1
26,152,2156,1,1.1,0.65
26,153,3401,-1,0.8,1.55
26,154,1905,1,0.95,0.95
26,155,1177,-1,0.65,0.5
26,156,1960,1,0.45,1.1
26,157,2120,-1,2.0,0.5
26,158,1406,1,0.0,1.55
26,159,3300,-1,0.0,0.0
26,200,2817,-1,0.65,2.0
26,201,1891,-1,1.1,0.0
26,202,2356,-1,0.2,1.55
26,203,2166,1,1.1,0.65
26,204,3883,-1,0.65,0.65
26,205,1483,1,0.0,0.95
26,206,1874,1,0.5,0.8
26,207,1784,-1,2.0,0.5
26,208,1551,1,1.55,1.1
26,209,3102,1,1.1,2.0
26,210,1514,1,0.5,0.65
26,211,1830,1,0.8,0.65
26,212,2044,-1,0.8,0.5
26,213,2436,-1,0.95,0.0
26,214,3291,1,0.65,0.65
26,215,1223,1,0.5,0.95
26,216,1105,-1,0.65,1.55
26,217,1676,1,1.55,0.95
26,218,2011,1,1.55,0.8
26,219,1833,1,0.65,0.65
26,220,1647,1,1.1,0.8
26,221,2126,1,0.65,1.1
26,222,1879,-1,0.95,0.95
26,223,1624,1,0.45,0.65
26,224,2532,1,0.0,0.0
26,225,1637,1,1.55,2.0
26,226,1500,-1,1.7,0.5
26,227,2111,-1,1.55,0.0
26,228,2134,-1,0.65,0.65
26,229,1782,-1,0.2,0.0
26,230,2798,-1,0.65,1.1
26,231,2309,-1,0.65,1.55
26,232,1659,-1,0.65,0.0
26,233,3478,-1,1.1,1.1
26,234,2519,1,1.25,0.8
26,235,2088,-1,1.55,0.0
26,236,2521,-1,1.55,0.5
26,237,1261,1,0.5,0.65
26,238,1682,1,1.1,0.95
26,239,2238,-1,0.65,0.95
27,0,8714,-1,3.0,3.0
27,1,4378,-1,1.4,0.95
27,2,7415,-1,1.1,3.0
27,3,4597,-1,0.65,1.4
27,4,2517,-1,2.0,0.95
27,5,2222,-1,2.45,2.0
27,6,2352,-1,2.0,0.0
27,7,3681,-1,2.75,2.9
27,8,4549,-1,3.0,3.0
27,9,3569,1,1.4,2.9
27,10,2612,1,0.95,3.0
27,11,3495,-1,1.25,0.95
27,12,4971,1,0.0,3.0
27,13,6652,-1,0.95,0.95
27,14,2791,1,1.55,2.6
27,15,3801,1,1.85,2.0
27,16,1448,1,0.95,0.95
27,17,6261,-1,3.0,0.95
27,18,5281,-1,1.55,0.95
27,19,5041,-1,2.15,2.0
27,20,3670,1,0.2,0.8
27,21,2575,1,2.0,3.0
27,22,2487,-1,0.5,0.95
27,23,1506,1,0.95,2.75
27,24,1834,-1,1.55,0.5
27,25,2049,-1,3.0,0.95
27,26,2743,1,0.2,2.0
27,27,1523,1,0.95,3.0
27,28,3467,-1,1.55,0.0
27,29,2924,-1,3.0,0.95
27,30,1463,-1,2.6,0.95
27,31,4632,1,0.0,0.95
27,32,2777,1,0.95,3.0
27,33,2657,1,2.0,1.55
27,34,1578,1,0.0,1.1
27,35,2279,1,0.65,1.55
27,36,6952,1,2.0,1.25
27,37,1709,1,0.0,0.0
27,38,3970,-1,0.8,2.9
27,39,3983,1,2.9,2.6
27,80,2858,-1,3.0,0.95
27,81,2422,-1,2.0,1.85
27,82,1225,1,1.85,1.4
27,83,2250,1,0.0,2.0
27,84,1530,-1,1.55,0.65
27,85,1339,1,2.9,0.8
27,86,1950,-1,0.95,0.95
27,87,1356,1,0.95,3.0
27,88,2069,-1,3.0,2.0
27,89,2782,-1,1.55,2.0
27,90,1648,-1,3.0,0.95
27,91,1202,1,0.95,2.6
27,92,2789,1,0.95,2.0
27,93,5581,-1,2.45,0.8
27,94,1726,-1,0.95,1.85
27,95,4274,-1,3.0,3.0
27,96,2813,1,0.95,2.75
27,97,1951,1,2.0,2.75
27,98,940,-1,3.0,0.0
27,99,1636,-1,1.4,0.65
27,100,3438,-1,0.95,2.0
27,101,1607,1,0.95,0.95
27,102,1529,1,2.6,2.9
27,103,2853,-1,0.95,0.5
27,104,9474,1,2.0,1.55
27,105,5642,1,0.95,1.25
27,106,1744,-1,0.0,0.0
27,107,1389,-1,1.25,2.0
27,108,1321,1,0.95,3.0
27,109,1536,1,1.85,3.0
27,110,2787,1,0.5,0.95
27,111,1579,1,1.55,3.0
27,112,4024,-1,3.0,0.95
27,113,2864,-1,3.0,3.0
27,114,1351,1,0.95,0.95
27,115,3140,-1,0.8,0.95
27,116,2025,1,0.95,0.95
27,117,1811,-1,2.9,1.4
27,118,1187,1,0.0,2.15
27,119,3036,-1,2.0,0.5
27,160,1606,1,0.0,1.55
27,161,1766,1,1.85,0.95
27,162,1686,-1,0.95,0.0
27,163,1342,-1,3.0,0.95
27,164,1358,-1,0.95,0.8
27,165,1367,-1,2.0,0.2
27,166,1659,-1,2.75,2.0
27,167,1768,1,3.0,3.0
27,168,1622,-1,0.95,2.0
27,169,1539,-1,2.75,0.95
27,170,1711,-1,1.1,0.0
27,171,1802,1,2.0,2.15
27,172,1543,-1,2.6,1.55
27,173,2737,1,2.0,0.95
27,174,989,1,0.95,2.6
27,175,1769,1,3.0,3.0
27,176,1255,-1,0.95,0.5
27,177,1453,-1,0.8,0.2
27,178,1189,1,0.95,0.95
27,179,1200,1,0.5,2.0
27,180,1125,1,1.4,1.85
27,181,3310,-1,2.0,0.95
27,182,1458,1,2.0,2.45
27,183,1090,-1,2.15,0.0
27,184,1318,-1,0.95,0.95
27,185,1803,-1,1.55,2.0
27,186,2851,-1,3.0,1.1
27,187,1091,1,2.9,2.75
27,188,1535,-1,0.95,1.55
27,189,881,-1,3.0,1.85
27,190,838,-1,3.0,1.55
27,191,952,1,2.6,0.95
27,192,1488,-1,0.95,0.95
27,193,1253,1,0.95,3.0
27,194,1180,1,0.95,3.0
27,195,1772,-1,2.75,0.95
27,196,1550,-1,0.5,1.55
27,197,1010,1,0.95,1.4
27,198,1210,1,0.8,2.45
27,199,1611,-1,0.95,0.95
28,40,2917,-1,2.0,0.95
28,41,3504,1,0.95,1.85
28,42,4543,1,0.65,0.8
28,43,4975,-1,1.85,0.5
28,44,5817,1,0.65,1.1
28,45,2361,1,0.5,0.5
28,46,5476,-1,0.65,1.25
28,47,2072,-1,2.75,1.25
28,48,4965,-1,0.95,0.65
28,49,4201,1,0.65,1.4
28,50,5258,1,1.85,1.4
28,51,7786,-1,2.0,1.1
28,52,5668,-1,2.0,1.25
28,53,3212,1,2.45,1.1
28,54,6939,-1,2.0,2.0
28,55,2346,1,0.5,1.55
28,56,2072,1,0.5,0.65
28,57,3012,1,1.1,0.65
28,58,3675,1,0.95,0.8
28,59,6583,-1,2.0,0.8
28,60,5290,1,0.5,2.0
28,61,5446,-1,1.25,0.5
28,62,5345,1,0.95,1.1
28,63,7740,-1,0.8,0.65
28,64,5653,1,1.1,1.1
28,65,5366,-1,1.1,0.95
28,66,5371,-1,0.95,1.7
28,67,5036,1,1.55,0.65
28,68,2415,-1,0.95,0.95
28,69,4180,1,1.1,0.65
28,70,2941,1,0.65,0.95
28,71,2476,1,0.5,2.45
28,72,7361,1,2.0,2.6
28,73,3518,-1,0.95,0.65
28,74,4217,-1,2.0,0.8
28,75,2952,1,1.1,0.95
28,76,5377,1,0.8,0.65
28,77,1980,-1,1.55,1.1
28,78,4057,1,1.7,1.55
28,79,9678,-1,0.95,2.0
28,120,5485,1,0.8,0.95
28,121,4688,1,1.1,2.0
28,122,2575,1,0.5,1.25
28,123,6537,1,2.6,0.8
28,124,6484,1,1.1,2.0
28,125,3022,-1,0.95,0.35
28,126,6085,-1,1.1,1.55
28,127,4060,1,1.25,0.65
28,128,4339,1,1.1,0.65
28,129,2191,-1,2.45,0.5
28,130,2684,1,0.5,0.5
28,131,4395,1,1.85,2.0
28,132,1964,1,0.8,2.0
28,133,1442,-1,1.55,0.5
28,134,2537,1,2.0,2.0
28,135,6978,-1,0.95,1.1
28,136,1193,-1,0.65,0.5
28,137,4139,-1,0.65,1.1
28,138,4694,1,1.25,2.0
28,139,3001,-1,1.4,0.65
28,140,2756,-1,0.65,0.95
28,141,3763,1,0.8,0.65
28,142,3310,-1,2.0,0.35
28,143,3880,1,0.95,2.0
28,144,2908,-1,2.75,0.95
28,145,1819,-1,0.65,1.55
28,146,2119,-1,0.65,0.95
28,147,2914,-1,1.1,0.95
28,148,1714,1,0.8,2.0
28,149,6710,-1,1.55,0.5
28,150,1867,1,0.65,0.95
28,151,5046,1,0.35,2.0
28,152,3754,-1,0.35,0.95
28,153,1970,1,1.25,2.75
28,154,3659,1,1.1,0.8
28,155,1978,1,1.25,2.0
28,156,4997,-1,1.1,1.1
28,157,2579,1,0.5,0.65
28,158,3715,1,0.5,1.85
28,159,5174,-1,0.65,0.8
28,200,4110,-1,2.0,0.95
28,201,4663,1,0.95,1.85
28,202,2029,1,0.65,0.8
28,203,3071,-1,1.85,0.5
28,204,5185,1,0.65,1.1
28,205,6989,1,0.5,0.5
28,206,3061,-1,0.65,1.25
28,207,2334,-1,2.75,1.25
28,208,4556,-1,0.95,0.65
28,209,2180,1,0.65,1.4
28,210,3245,1,1.85,1.4
28,211,4539,-1,2.0,1.1
28,212,5032,-1,2.0,1.25
28,213,2979,1,2.45,1.1
28,214,2209,-1,2.0,2.0
28,215,2813,1,0.5,1.55
28,216,1594,1,0.5,0.65
28,217,4196,1,1.1,0.65
28,218,3355,1,0.95,0.8
28,219,4956,-1,2.0,0.8
28,220,2579,1,0.5,2.0
28,221,4149,1,1.25,0.5
28,222,2785,1,0.95,1.1
28,223,5262,1,0.8,0.65
28,224,4217,1,1.1,1.1
28,225,4223,-1,1.1,0.95
28,226,2335,-1,0.95,1.7
28,227,3289,1,1.55,0.65
28,228,2449,-1,0.95,0.95
28,229,3210,1,1.1,0.65
28,230,2363,1,0.65,0.95
28,231,4057,1,0.5,2.45
28,232,5577,1,2.0,2.6
28,233,2254,1,0.95,0.65
28,234,2996,-1,2.0,0.8
28,235,2767,1,1.1,0.95
28,236,4317,1,0.8,0.65
28,237,2777,-1,1.55,1.1
28,238,2574,1,1.7,1.55
28,239,2762,1,0.95,2.0
29,0,3623,1,0.95,1.1
29,1,4017,1,0.95,1.25
29,2,2373,-1,0.8,0.8
29,3,4714,-1,1.1,0.8
29,4,2788,1,0.95,1.1
29,5,5247,1,1.1,1.25
29,6,3628,-1,1.25,0.8
29,7,2877,-1,1.25,1.55
29,8,2493,1,1.55,0.65
29,9,3252,1,0.8,1.25
29,10,3070,-1,2.0,1.4
29,11,2026,-1,1.7,1.7
29,12,2406,1,0.5,1.1
29,13,1732,-1,0.8,1.55
29,14,1897,-1,1.1,0.8
29,15,5175,1,1.25,0.8
29,16,2070,-1,1.1,1.25
29,17,3089,-1,1.7,1.1
29,18,2017,-1,1.1,1.25
29,19,3367,1,1.1,1.1
29,20,2607,1,0.95,1.1
29,21,1931,1,0.95,0.8
29,22,3657,-1,1.7,1.1
29,23,3806,-1,2.0,0.8
29,24,6361,-1,0.8,1.1
29,25,3210,1,0.8,1.4
29,26,5723,-1,1.55,0.8
29,27,2940,-1,1.25,0.8
29,28,639,-1,1.7,1.25
29,29,4636,-1,0.95,1.1
29,30,1729,-1,1.7,0.95
29,31,2868,1,0.8,0.8
29,32,1568,-1,0.8,1.25
29,33,2495,-1,0.95,0.95
29,34,1470,-1,0.65,0.95
29,35,3695,1,0.95,0.8
29,36,2112,-1,0.8,0.8
29,37,3559,-1,1.25,1.1
29,38,3224,1,1.1,1.25
29,39,1581,-1,1.25,2.15
29,80,5120,-1,1.25,0.95
29,81,2286,-1,1.55,0.8
29,82,4756,-1,0.8,0.95
29,83,2604,1,1.1,1.7
29,84,5451,1,1.7,0.95
29,85,1921,-1,1.25,1.1
29,86,3510,1,0.8,0.95
29,87,2106,-1,1.25,1.7
29,88,3600,1,0.95,1.7
29,89,4568,1,2.15,1.25
29,90,5080,-1,0.8,2.0
29,91,4753,1,1.1,1.25
29,92,2928,1,1.25,1.1
29,93,4488,1,0.95,0.5
29,94,3548,1,0.8,2.0
29,95,4946,-1,1.7,0.8
29,96,1853,-1,0.8,0.8
29,97,2153,1,1.25,1.7
29,98,1783,-1,1.4,0.8
29,99,2052,1,2.15,0.8
29,100,6710,-1,0.8,0.8
29,101,1381,-1,1.25,2.0
29,102,2520,-1,1.25,2.0
29,103,4028,1,0.95,1.25
29,104,2755,1,0.8,1.1
29,105,1867,1,1.1,0.8
29,106,1915,1,0.8,1.25
29,107,1781,-1,1.1,1.1
29,108,4124,-1,1.1,0.95
29,109,4803,1,0.8,1.1
29,110,2029,1,1.7,0.8
29,111,2234,1,1.55,1.55
29,112,2111,-1,0.8,0.95
29,113,3826,-1,1.25,1.1
29,114,1799,-1,0.95,0.95
29,115,2236,1,0.95,2.0
29,116,5120,-1,1.1,0.95
29,117,2093,1,1.25,1.55
29,118,2179,1,0.8,1.25
29,119,2487,1,0.95,0.95
29,160,2714,1,0.8,1.25
29,161,2357,1,0.8,0.8
29,162,2021,1,0.95,0.65
29,163,1550,-1,0.65,1.55
29,164,1564,1,0.95,0.95
29,165,1883,1,0.8,1.55
29,166,2328,1,1.1,0.95
29,167,1972,-1,1.25,0.95
29,168,2753,1,0.8,0.8
29,169,2157,-1,0.5,0.95
29,170,2620,1,1.25,0.8
29,171,2088,-1,1.25,0.95
29,172,2136,1,0.95,1.1
29,173,2236,1,2.0,0.8
29,174,2502,1,0.95,1.25
29,175,1562,-1,0.8,0.8
29,176,2116,-1,1.25,0.8
29,177,2649,-1,1.1,0.95
29,178,3566,1,1.25,1.1
29,179,2881,-1,2.0,1.25
29,180,2103,1,0.8,0.8
29,181,2377,-1,1.7,1.25
29,182,1481,-1,1.55,1.55
29,183,2388,-1,1.7,1.7
29,184,1359,-1,2.0,0.95
29,185,2880,1,1.4,2.0
29,186,2310,1,1.55,0.8
29,187,1607,-1,0.8,1.7
29,188,1214,1,1.55,1.25
29,189,1696,-1,1.1,0.5
29,190,2033,1,0.8,1.7
29,191,2023,1,0.8,1.55
29,192,2288,1,2.0,1.25
29,193,2691,1,0.8,0.8
29,194,1592,-1,1.1,1.7
29,195,2044,-1,0.95,1.7
29,196,2946,-1,0.8,2.15
29,197,2553,1,1.1,0.95
29,198,1492,-1,0.95,0.8
29,199,3785,-1,1.55,1.25
30,40,1931,-1,1.7,2.15
30,41,2404,-1,0.95,1.4
30,42,1716,1,1.85,3.0
30,43,2148,1,1.7,2.0
30,44,1241,-1,1.7,1.1
30,45,4204,-1,2.1,2.0
30,46,1600,1,2.0,0.95
30,47,2211,1,1.85,1.4
30,48,1704,1,2.1,0.95
30,49,1600,1,1.25,2.15
30,50,2422,-1,1.55,2.45
30,51,1896,-1,1.7,0.95
30,52,2521,-1,0.95,1.1
30,53,2004,-1,2.15,2.0
30,54,1472,1,0.95,1.1
30,55,5383,1,1.1,2.0
30,56,1362,-1,0.95,2.0
30,57,1891,1,0.8,1.4
30,58,1274,-1,1.4,1.1
30,59,1471,1,1.1,1.1
30,60,6168,1,1.1,0.95
30,61,1395,-1,2.45,1.1
30,62,2056,1,0.95,0.95
30,63,2278,-1,1.1,0.95
30,64,2561,-1,1.55,2.0
30,65,1522,1,1.25,0.95
30,66,1732,-1,0.95,0.8
30,67,3913,-1,0.8,2.0
30,68,4265,-1,0.95,0.95
30,69,1164,-1,1.4,1.4
30,70,1845,-1,1.55,1.1
30,71,2843,-1,1.4,0.8
30,72,1607,1,1.85,1.1
30,73,1739,-1,0.95,2.15
30,74,1155,-1,1.4,1.55
30,75,2704,-1,1.25,0.95
30,76,1786,-1,1.1,3.0
30,77,1139,-1,0.95,2.45
30,78,1149,-1,0.95,2.0
30,79,1553,1,0.8,0.95
30,120,2153,1,1.25,2.0
30,121,2402,-1,0.95,1.25
30,122,1541,-1,1.1,1.1
30,123,1511,1,2.0,2.1
30,124,1645,-1,1.55,1.1
30,125,1098,1,1.1,2.15
30,126,1549,1,0.95,2.0
30,127,2215,1,1.4,0.8
30,128,1421,-1,1.1,1.55
30,129,1391,1,0.8,1.1
30,130,3184,1,2.45,1.4
30,131,2700,-1,0.95,0.95
30,132,1209,1,1.85,0.95
30,133,2049,1,1.55,1.4
30,134,1544,1,0.95,1.7
30,135,1390,1,0.95,0.95
30,136,3872,-1,0.8,0.95
30,137,2127,1,1.4,0.95
30,138,1818,-1,0.95,0.8
30,139,1140,1,3.0,1.1
30,140,1240,1,0.95,1.4
30,141,1684,1,1.55,1.1
30,142,1281,-1,1.4,1.85
30,143,1266,1,1.1,1.4
30,144,1447,1,2.0,0.95
30,145,1402,1,2.15,0.95
30,146,1867,1,2.0,0.8
30,147,1617,-1,0.8,1.55
30,148,1272,1,2.45,0.95
30,149,973,-1,2.15,2.0
30,150,1506,1,1.1,1.4
30,151,1373,-1,3.0,1.85
30,152,1381,1,2.45,1.55
30,153,1701,-1,0.95,1.1
30,154,1317,1,1.4,1.55
30,155,1939,1,1.1,1.1
30,156,1619,1,0.95,1.1
30,157,1885,-1,0.95,2.0
30,158,1305,-1,0.95,1.85
30,159,1443,1,1.85,2.0
30,200,4243,-1,0.95,1.1
30,201,1377,1,2.0,2.15
30,202,2300,-1,1.1,0.95
30,203,1573,1,1.4,1.4
30,204,1566,1,2.0,2.15
30,205,1769,-1,2.0,0.95
30,206,2027,1,1.85,0.95
30,207,1474,1,2.15,1.7
30,208,1615,1,1.1,1.55
30,209,1352,1,2.0,0.95
30,210,1492,-1,1.4,0.95
30,211,2773,-1,1.1,2.45
30,212,1745,-1,1.1,0.8
30,213,1520,1,2.0,1.25
30,214,1349,-1,1.1,1.85
30,215,1616,-1,1.1,0.95
30,216,1252,1,1.55,0.8
30,217,1365,-1,0.95,1.85
30,218,1201,1,2.0,1.7
30,219,1369,1,1.1,0.95
30,220,7982,1,2.0,1.1
30,221,1608,1,0.8,1.4
30,222,1442,-1,2.15,1.1
30,223,1610,1,1.1,1.7
30,224,2007,-1,1.4,2.45
30,225,1204,1,1.1,1.1
30,226,839,-1,2.0,1.85
30,227,1047,1,2.0,1.55
30,228,1226,1,1.1,0.95
30,229,1339,1,1.4,1.1
30,230,980,-1,2.15,1.25
30,231,1351,1,2.0,0.95
30,232,1058,-1,0.95,0.8
30,233,1190,1,0.8,0.95
30,234,1304,1,0.95,2.0
30,235,1453,1,0.95,1.25
30,236,1491,-1,1.1,1.55
30,237,959,-1,0.95,2.1
30,238,1262,1,0.95,1.1
30,239,899,-1,1.55,1.4
31,40,2806,1,2.0,0.8
31,41,1887,-1,0.8,1.55
31,42,1842,-1,0.8,1.55
31,43,5697,1,1.25,1.55
31,44,3179,1,0.8,0.8
31,45,1968,-1,0.65,0.95
31,46,3571,-1,2.0,1.1
31,47,1916,-1,0.8,1.55
31,48,6869,1,0.95,0.8
31,49,1735,-1,1.1,0.95
31,50,1689,1,0.95,0.8
31,51,1926,-1,0.95,1.1
31,52,2321,-1,1.4,2.0
31,53,3173,1,1.1,0.95
31,54,1410,1,1.1,0.95
31,55,1913,-1,2.0,1.25
31,56,5267,-1,3.0,2.45
31,57,1478,-1,2.15,3.0
31,58,1750,1,2.45,1.1
31,59,2418,-1,0.95,0.95
31,60,3594,-1,2.0,1.4
31,61,2079,-1,0.95,1.1
31,62,1617,1,0.95,0.8
31,63,2727,-1,0.65,2.0
31,64,1593,1,1.4,0.65
31,65,3681,-1,2.0,2.0
31,66,5021,-1,0.95,3.0
31,67,592,1,1.55,0.8
31,68,621,1,0.8,1.55
31,69,4016,1,2.0,1.55
31,70,1954,-1,1.55,2.6
31,71,13825,1,2.0,0.95
31,72,1801,-1,0.8,1.4
31,73,1665,1,1.1,2.15
31,74,4277,-1,0.95,2.6
31,75,590,1,0.8,0.95
31,76,2515,1,0.95,3.0
31,77,3934,1,2.0,0.95
31,78,2434,1,2.0,1.1
31,79,2603,1,1.4,0.8
31,120,3174,-1,0.8,0.95
31,121,1656,1,0.65,0.8
31,122,2021,-1,2.0,1.1
31,123,8498,-1,3.0,2.45
31,124,1523,1,1.1,0.95
31,125,1801,-1,0.8,2.0
31,126,3317,1,0.95,0.95
31,127,2639,1,2.6,0.95
31,128,3040,1,2.45,3.0
31,129,1792,1,1.25,0.95
31,130,2594,1,1.1,2.0
31,131,1556,1,2.0,0.65
31,132,7643,-1,0.8,0.8
31,133,1838,-1,2.0,1.1
31,134,1653,-1,0.65,0.95
31,135,1700,-1,0.8,1.4
31,136,1510,1,1.25,0.95
31,137,2024,-1,3.0,0.95
31,138,1585,-1,0.95,1.1
31,139,1575,1,2.6,1.55
31,140,1448,1,2.45,0.95
31,141,1724,-1,1.1,2.45
31,142,1912,-1,0.95,1.1
31,143,3126,-1,0.95,1.25
31,144,1542,1,1.4,2.0
31,145,2882,-1,1.1,0.65
31,146,1861,-1,1.55,2.0
31,147,3432,1,2.0,0.65
31,148,1993,-1,0.95,2.0
31,149,1826,-1,0.8,0.95
31,150,1326,1,1.4,1.4
31,151,1681,-1,1.1,2.0
31,152,2107,-1,1.55,2.0
31,153,6633,1,0.8,1.55
31,154,6600,-1,0.8,0.8
31,155,2051,1,0.95,0.95
31,156,1352,1,3.0,0.65
31,157,1779,-1,1.4,0.95
31,158,1981,-1,0.95,2.0
31,159,2886,1,1.55,1.25
31,200,2825,-1,0.95,1.25
31,201,4301,1,1.1,2.0
31,202,13504,1,0.95,2.0
31,203,2745,1,1.55,0.8
31,204,6495,1,0.8,0.95
31,205,1617,-1,1.55,0.8
31,206,2104,1,1.25,0.95
31,207,1542,-1,0.65,1.4
31,208,2535,-1,0.8,0.65
31,209,3877,1,0.8,0.8
31,210,1655,-1,0.8,2.0
31,211,1528,1,3.0,2.15
31,212,1120,-1,1.4,1.4
31,213,8770,1,0.65,1.1
31,214,1337,1,2.0,0.95
31,215,1118,-1,0.65,3.0
31,216,1652,-1,2.15,1.1
31,217,1257,1,2.0,1.55
31,218,1494,1,0.95,0.65
31,219,1184,1,0.95,1.4
31,220,1718,-1,0.65,2.0
31,221,1681,-1,0.95,0.95
31,222,1684,-1,1.25,1.55
31,223,1641,1,1.1,2.0
31,224,1177,1,1.1,0.95
31,225,1116,1,3.0,0.95
31,226,4596,1,2.0,2.0
31,227,2824,1,1.55,0.8
31,228,2865,1,2.45,3.0
31,229,1555,1,0.95,1.1
31,230,1543,1,1.55,0.8
31,231,3718,1,0.95,0.8
31,232,2962,-1,1.55,1.25
31,233,2816,-1,0.95,1.25
31,234,2271,1,2.0,1.4
31,235,1378,1,1.4,0.8
31,236,3296,1,1.25,2.0
31,237,1562,1,0.95,0.65
31,238,1519,-1,0.95,2.45
31,239,2493,1,2.0,0.8
32,40,6039,-1,0.05,2.9
32,41,4235,-1,1.1,0.65
32,42,1721,-1,2.15,2.0
32,43,3880,1,0.65,0.5
32,44,5161,-1,2.9,2.3
32,45,2435,-1,2.0,2.6
32,46,2053,-1,2.0,0.65
32,47,2808,-1,2.3,1.55
32,48,2466,1,1.85,2.0
32,49,2533,1,0.95,2.0
32,50,3087,1,2.0,1.55
32,51,4044,1,2.3,2.0
32,52,3717,-1,3.0,2.9
32,53,4197,-1,2.0,3.0
32,54,1951,-1,1.85,0.65
32,55,2636,1,1.25,2.0
32,56,5609,1,3.0,2.15
32,57,3842,-1,2.0,0.0
32,58,2590,1,2.6,0.0
32,59,4552,-1,2.15,0.2
32,60,5707,1,2.3,2.0
32,61,2032,-1,2.9,0.95
32,62,3916,1,0.65,2.15
32,63,3903,1,0.5,2.45
32,64,5606,-1,2.0,1.7
32,65,7210,1,0.05,0.95
32,66,2270,-1,0.2,0.5
32,67,6764,-1,0.95,0.2
32,68,2622,-1,1.55,2.9
32,69,2722,1,0.0,2.15
32,70,3626,1,0.0,0.0
32,71,6235,-1,3.0,1.55
32,72,2322,1,2.45,2.45
32,73,3888,1,0.2,2.15
32,74,2585,-1,2.15,2.3
32,75,3448,1,2.15,2.0
32,76,5957,1,2.15,2.3
32,77,3157,1,2.45,1.7
32,78,5984,-1,2.3,0.65
32,79,3440,-1,2.9,2.45
32,120,3665,1,0.0,0.05
32,121,3219,-1,0.65,1.1
32,122,3585,1,2.0,3.0
32,123,4056,1,0.0,2.0
32,124,2483,-1,2.3,2.15
32,125,2924,-1,2.3,0.95
32,126,3935,-1,0.5,2.0
32,127,3444,-1,2.0,2.15
32,128,9235,-1,2.3,2.0
32,129,5697,1,0.0,2.45
32,130,5398,1,2.9,0.65
32,131,2416,-1,0.5,0.2
32,132,2498,-1,0.65,0.35
32,133,2454,-1,0.0,0.0
32,134,6321,-1,0.65,1.85
32,135,8417,1,2.0,1.85
32,136,2554,-1,2.0,1.25
32,137,5220,1,1.55,2.3
32,138,7288,-1,2.3,2.15
32,139,4805,1,2.45,0.5
32,140,2752,-1,2.0,0.95
32,141,4018,1,1.55,1.25
32,142,1675,-1,2.3,0.0
32,143,4835,-1,1.1,3.0
32,144,1641,1,0.35,2.45
32,145,7610,1,2.3,2.9
32,146,3286,-1,1.55,0.0
32,147,4550,1,2.15,0.2
32,148,4459,-1,1.7,2.45
32,149,3765,1,0.0,2.0
32,150,6405,-1,0.65,2.0
32,151,2385,1,0.95,0.2
32,152,4429,-1,2.45,3.0
32,153,6297,1,2.3,2.15
32,154,2278,-1,2.15,0.0
32,155,3901,-1,0.2,2.3
32,156,2534,-1,3.0,2.0
32,157,1524,1,0.05,3.0
32,158,4478,1,2.0,2.9
32,159,3472,-1,2.9,3.0
32,200,9789,-1,2.0,0.0
32,201,1429,-1,2.6,2.0
32,202,4597,1,2.3,0.2
32,203,4851,-1,3.0,2.45
32,204,3562,1,2.15,0.65
32,205,2518,1,2.15,2.3
32,206,1884,-1,2.45,0.35
32,207,1122,1,0.35,0.65
32,208,2179,-1,2.9,1.55
32,209,7205,1,2.0,2.3
32,210,2713,-1,2.15,3.0
32,211,2609,1,0.95,2.9
32,212,2694,-1,2.0,2.3
32,213,2761,1,1.55,2.0
32,214,2285,1,2.0,0.5
32,215,1613,-1,0.95,0.05
32,216,2841,1,0.2,0.95
32,217,2258,-1,0.65,2.3
32,218,1243,1,0.0,2.6
32,219,1767,-1,2.45,0.0
32,220,2423,1,3.0,1.1
32,221,1217,-1,1.7,2.0
32,222,3420,1,2.9,2.0
32,223,8198,-1,0.65,2.9
32,224,5417,1,2.45,2.9
32,225,1100,1,0.0,1.55
32,226,1789,-1,3.0,0.05
32,227,4438,1,2.0,2.3
32,228,3252,1,2.0,2.15
32,229,4139,-1,2.9,0.05
32,230,2098,-1,0.2,0.95
32,231,2920,-1,3.0,2.0
32,232,3779,-1,1.25,1.55
32,233,1952,1,0.2,2.15
32,234,2133,-1,0.5,0.65
32,235,1395,1,1.55,3.0
32,236,1213,1,0.0,2.3
32,237,3394,-1,0.05,0.0
32,238,5280,1,2.45,2.45
32,239,1905,-1,0.95,2.3
