index,parcode,trial,rt,choice,item_left,item_right,BlockCond,zLValue,zRValue,binLValue,binRValue
0,0,0,3327,1,0.95,2.0,2.0,-1.2378809621020572,1.1361373213813344,0.0,5.0
1,0,1,3424,1,2.3,1.7,2.0,1.8144282595194468,0.4578463832432223,5.0,4.0
2,0,2,3691,1,1.7,1.25,2.0,0.4578463832432229,-0.5595900239639454,4.0,1.0
3,0,3,8144,-1,1.55,2.3,2.0,0.11870091417416709,1.8144282595194459,3.0,5.0
4,0,4,6559,-1,2.0,2.0,2.0,1.136137321381335,1.1361373213813344,5.0,5.0
5,0,5,5595,-1,0.65,1.25,2.0,-1.9161719002401691,-0.5595900239639454,0.0,1.0
6,0,6,2470,1,1.55,1.1,2.0,0.11870091417416709,-0.8987354930330013,3.0,0.0
7,0,7,6091,1,0.95,0.65,2.0,-1.2378809621020572,-1.9161719002401694,0.0,0.0
8,0,8,4669,1,1.55,1.7,2.0,0.11870091417416709,0.4578463832432223,3.0,4.0
9,0,9,4001,1,2.0,1.1,2.0,1.136137321381335,-0.8987354930330013,5.0,0.0
10,0,10,3301,-1,1.1,1.1,2.0,-0.8987354930330009,-0.8987354930330013,0.0,0.0
11,0,11,2867,-1,1.4,2.0,2.0,-0.22044455489488926,1.1361373213813344,2.0,5.0
12,0,12,3117,1,1.85,1.1,2.0,0.7969918523122793,-0.8987354930330013,4.0,0.0
13,0,13,10424,1,1.7,2.0,2.0,0.4578463832432229,1.1361373213813344,4.0,5.0
14,0,14,2754,-1,1.25,1.55,2.0,-0.5595900239639451,0.11870091417416655,1.0,3.0
15,0,15,5836,1,2.0,1.7,2.0,1.136137321381335,0.4578463832432223,5.0,4.0
16,0,16,3931,1,1.85,1.7,2.0,0.7969918523122793,0.4578463832432223,4.0,4.0
17,0,17,3602,1,1.55,0.8,2.0,0.11870091417416709,-1.5770264311711133,3.0,0.0
18,0,18,5674,-1,1.7,1.4,2.0,0.4578463832432229,-0.2204445548948897,4.0,2.0
19,0,19,2567,1,1.7,1.1,2.0,0.4578463832432229,-0.8987354930330013,4.0,0.0
20,0,20,2097,-1,1.1,1.55,2.0,-0.8987354930330009,0.11870091417416655,0.0,3.0
21,0,21,3641,-1,0.95,0.8,2.0,-1.2378809621020572,-1.5770264311711133,0.0,0.0
22,0,22,4550,1,1.7,1.55,2.0,0.4578463832432229,0.11870091417416655,4.0,3.0
23,0,23,2973,1,1.7,1.4,2.0,0.4578463832432229,-0.2204445548948897,4.0,2.0
24,0,24,2824,-1,1.25,1.7,2.0,-0.5595900239639451,0.4578463832432223,1.0,4.0
25,0,25,3643,-1,2.0,2.3,2.0,1.136137321381335,1.8144282595194459,5.0,5.0
26,0,26,2188,1,1.85,0.65,2.0,0.7969918523122793,-1.9161719002401694,4.0,0.0
27,0,27,3321,1,1.85,1.1,2.0,0.7969918523122793,-0.8987354930330013,4.0,0.0
28,0,28,6784,-1,1.85,2.0,2.0,0.7969918523122793,1.1361373213813344,4.0,5.0
29,0,29,2314,-1,1.1,2.3,2.0,-0.8987354930330009,1.8144282595194459,0.0,5.0
30,0,30,2952,-1,1.1,2.0,2.0,-0.8987354930330009,1.1361373213813344,0.0,5.0
31,0,31,8388,-1,1.25,1.4,2.0,-0.5595900239639451,-0.2204445548948897,1.0,2.0
32,0,32,5341,1,1.25,1.85,2.0,-0.5595900239639451,0.7969918523122785,1.0,4.0
33,0,33,2183,1,1.1,0.95,2.0,-0.8987354930330009,-1.2378809621020574,0.0,0.0
34,0,34,3207,-1,0.95,1.85,2.0,-1.2378809621020572,0.7969918523122785,0.0,4.0
35,0,35,3224,1,1.1,1.55,2.0,-0.8987354930330009,0.11870091417416655,0.0,3.0
36,0,36,3476,1,1.7,1.85,2.0,0.4578463832432229,0.7969918523122785,4.0,4.0
37,0,37,2295,-1,0.65,1.7,2.0,-1.9161719002401691,0.4578463832432223,0.0,4.0
38,0,38,3513,-1,1.55,2.3,2.0,0.11870091417416709,1.8144282595194459,3.0,5.0
39,0,39,4458,1,1.1,0.95,2.0,-0.8987354930330009,-1.2378809621020574,0.0,0.0
40,0,40,2009,-1,1.1,0.95,1.0,-0.8987354930330009,-1.2378809621020574,0.0,0.0
41,0,41,3371,-1,2.0,1.7,1.0,1.136137321381335,0.4578463832432223,5.0,4.0
42,0,42,1700,1,1.1,2.3,1.0,-0.8987354930330009,1.8144282595194459,0.0,5.0
43,0,43,7466,1,1.25,1.4,1.0,-0.5595900239639451,-0.2204445548948897,1.0,2.0
44,0,44,1889,1,2.0,2.3,1.0,1.136137321381335,1.8144282595194459,5.0,5.0
45,0,45,2227,1,1.7,1.85,1.0,0.4578463832432229,0.7969918523122785,4.0,4.0
46,0,46,4259,-1,1.85,0.65,1.0,0.7969918523122793,-1.9161719002401694,4.0,0.0
47,0,47,3505,-1,1.55,0.8,1.0,0.11870091417416709,-1.5770264311711133,3.0,0.0
48,0,48,2548,-1,1.55,1.1,1.0,0.11870091417416709,-0.8987354930330013,3.0,0.0
49,0,49,3226,1,1.1,2.0,1.0,-0.8987354930330009,1.1361373213813344,0.0,5.0
50,0,50,4604,-1,1.85,1.1,1.0,0.7969918523122793,-0.8987354930330013,4.0,0.0
51,0,51,6333,-1,0.95,2.0,1.0,-1.2378809621020572,1.1361373213813344,0.0,5.0
52,0,52,5716,-1,0.95,0.8,1.0,-1.2378809621020572,-1.5770264311711133,0.0,0.0
53,0,53,3562,-1,2.0,1.1,1.0,1.136137321381335,-0.8987354930330013,5.0,0.0
54,0,54,2447,-1,1.85,1.1,1.0,0.7969918523122793,-0.8987354930330013,4.0,0.0
55,0,55,2120,1,1.25,1.85,1.0,-0.5595900239639451,0.7969918523122785,1.0,4.0
56,0,56,6932,1,2.0,2.0,1.0,1.136137321381335,1.1361373213813344,5.0,5.0
57,0,57,4274,1,1.25,1.7,1.0,-0.5595900239639451,0.4578463832432223,1.0,4.0
58,0,58,6854,-1,1.7,1.4,1.0,0.4578463832432229,-0.2204445548948897,4.0,2.0
59,0,59,6698,-1,1.1,1.1,1.0,-0.8987354930330009,-0.8987354930330013,0.0,0.0
60,0,60,2913,-1,1.1,0.95,1.0,-0.8987354930330009,-1.2378809621020574,0.0,0.0
61,0,61,4513,-1,1.7,1.55,1.0,0.4578463832432229,0.11870091417416655,4.0,3.0
62,0,62,2110,1,1.85,2.0,1.0,0.7969918523122793,1.1361373213813344,4.0,5.0
63,0,63,3385,-1,1.7,1.4,1.0,0.4578463832432229,-0.2204445548948897,4.0,2.0
64,0,64,2456,1,1.4,2.0,1.0,-0.22044455489488926,1.1361373213813344,2.0,5.0
65,0,65,2136,-1,1.85,1.7,1.0,0.7969918523122793,0.4578463832432223,4.0,4.0
66,0,66,7010,1,1.1,1.55,1.0,-0.8987354930330009,0.11870091417416655,0.0,3.0
67,0,67,4784,-1,0.95,0.65,1.0,-1.2378809621020572,-1.9161719002401694,0.0,0.0
68,0,68,2697,1,1.1,1.55,1.0,-0.8987354930330009,0.11870091417416655,0.0,3.0
69,0,69,4654,1,1.25,1.55,1.0,-0.5595900239639451,0.11870091417416655,1.0,3.0
70,0,70,1916,1,1.55,2.3,1.0,0.11870091417416709,1.8144282595194459,3.0,5.0
71,0,71,2033,-1,1.7,1.25,1.0,0.4578463832432229,-0.5595900239639454,4.0,1.0
72,0,72,1441,1,0.95,1.85,1.0,-1.2378809621020572,0.7969918523122785,0.0,4.0
73,0,73,3579,1,0.65,1.25,1.0,-1.9161719002401691,-0.5595900239639454,0.0,1.0
74,0,74,7377,1,1.7,2.0,1.0,0.4578463832432229,1.1361373213813344,4.0,5.0
75,0,75,2921,-1,2.3,1.7,1.0,1.8144282595194468,0.4578463832432223,5.0,4.0
76,0,76,6398,-1,1.55,2.3,1.0,0.11870091417416709,1.8144282595194459,3.0,5.0
77,0,77,2919,1,0.65,1.7,1.0,-1.9161719002401691,0.4578463832432223,0.0,4.0
78,0,78,4737,-1,1.55,1.7,1.0,0.11870091417416709,0.4578463832432223,3.0,4.0
79,0,79,3459,-1,1.7,1.1,1.0,0.4578463832432229,-0.8987354930330013,4.0,0.0
80,0,80,2348,1,1.55,1.1,2.0,0.11870091417416709,-0.8987354930330013,3.0,0.0
81,0,81,2809,-1,1.4,1.7,2.0,-0.22044455489488926,0.4578463832432223,2.0,4.0
82,0,82,1992,-1,1.1,1.7,2.0,-0.8987354930330009,0.4578463832432223,0.0,4.0
83,0,83,1534,1,1.85,0.95,2.0,0.7969918523122793,-1.2378809621020574,4.0,0.0
84,0,84,3023,-1,0.95,2.3,2.0,-1.2378809621020572,1.8144282595194459,0.0,5.0
85,0,85,3452,-1,2.0,2.0,2.0,1.136137321381335,1.1361373213813344,5.0,5.0
86,0,86,3961,1,2.0,1.55,2.0,1.136137321381335,0.11870091417416655,5.0,3.0
87,0,87,2636,1,2.0,1.1,2.0,1.136137321381335,-0.8987354930330013,5.0,0.0
88,0,88,1898,1,2.0,1.1,2.0,1.136137321381335,-0.8987354930330013,5.0,0.0
89,0,89,1725,1,2.3,1.1,2.0,1.8144282595194468,-0.8987354930330013,5.0,0.0
90,0,90,4336,1,2.3,2.0,2.0,1.8144282595194468,1.1361373213813344,5.0,5.0
91,0,91,2037,-1,0.95,1.1,2.0,-1.2378809621020572,-0.8987354930330013,0.0,0.0
92,0,92,2479,-1,0.35,1.85,2.0,-2.5944628383782815,0.7969918523122785,0.0,4.0
93,0,93,3389,1,2.3,1.55,2.0,1.8144282595194468,0.11870091417416655,5.0,3.0
94,0,94,2339,-1,1.7,2.0,2.0,0.4578463832432229,1.1361373213813344,4.0,5.0
95,0,95,3609,-1,1.85,1.85,2.0,0.7969918523122793,0.7969918523122785,4.0,4.0
96,0,96,7371,1,2.3,1.55,2.0,1.8144282595194468,0.11870091417416655,5.0,3.0
97,0,97,2520,-1,1.55,2.0,2.0,0.11870091417416709,1.1361373213813344,3.0,5.0
98,0,98,1761,1,2.0,1.4,2.0,1.136137321381335,-0.2204445548948897,5.0,2.0
99,0,99,2593,1,1.85,1.7,2.0,0.7969918523122793,0.4578463832432223,4.0,4.0
100,0,100,5772,1,1.55,1.1,2.0,0.11870091417416709,-0.8987354930330013,3.0,0.0
101,0,101,1945,-1,1.1,1.85,2.0,-0.8987354930330009,0.7969918523122785,0.0,4.0
102,0,102,1621,1,1.1,0.35,2.0,-0.8987354930330009,-2.594462838378281,0.0,0.0
103,0,103,2952,1,1.55,1.4,2.0,0.11870091417416709,-0.2204445548948897,3.0,2.0
104,0,104,2725,-1,1.25,2.0,2.0,-0.5595900239639451,1.1361373213813344,1.0,5.0
105,0,105,2591,-1,1.1,1.55,2.0,-0.8987354930330009,0.11870091417416655,0.0,3.0
106,0,106,3523,1,1.4,1.1,2.0,-0.22044455489488926,-0.8987354930330013,2.0,0.0
107,0,107,7082,-1,1.25,1.1,2.0,-0.5595900239639451,-0.8987354930330013,1.0,0.0
108,0,108,4066,1,1.55,1.25,2.0,0.11870091417416709,-0.5595900239639454,3.0,1.0
109,0,109,2602,-1,1.25,2.0,2.0,-0.5595900239639451,1.1361373213813344,1.0,5.0
110,0,110,3239,1,1.4,1.25,2.0,-0.22044455489488926,-0.5595900239639454,2.0,1.0
111,0,111,1943,-1,1.55,1.55,2.0,0.11870091417416709,0.11870091417416655,3.0,3.0
112,0,112,3627,-1,1.85,2.0,2.0,0.7969918523122793,1.1361373213813344,4.0,5.0
113,0,113,6245,-1,1.7,1.55,2.0,0.4578463832432229,0.11870091417416655,4.0,3.0
114,0,114,4574,1,1.85,1.55,2.0,0.7969918523122793,0.11870091417416655,4.0,3.0
115,0,115,4327,1,1.7,0.65,2.0,0.4578463832432229,-1.9161719002401694,4.0,0.0
116,0,116,6247,-1,1.1,2.0,2.0,-0.8987354930330009,1.1361373213813344,0.0,5.0
117,0,117,2353,-1,1.1,1.25,2.0,-0.8987354930330009,-0.5595900239639454,0.0,1.0
118,0,118,4758,-1,0.95,1.55,2.0,-1.2378809621020572,0.11870091417416655,0.0,3.0
119,0,119,2715,-1,1.1,1.85,2.0,-0.8987354930330009,0.7969918523122785,0.0,4.0
120,0,120,3454,1,1.85,1.85,1.0,0.7969918523122793,0.7969918523122785,4.0,4.0
121,0,121,2478,1,1.7,1.55,1.0,0.4578463832432229,0.11870091417416655,4.0,3.0
122,0,122,1728,1,1.1,1.85,1.0,-0.8987354930330009,0.7969918523122785,0.0,4.0
123,0,123,2014,-1,1.85,1.7,1.0,0.7969918523122793,0.4578463832432223,4.0,4.0
124,0,124,519,1,0.95,1.1,1.0,-1.2378809621020572,-0.8987354930330013,0.0,0.0
125,0,125,5492,1,1.1,1.25,1.0,-0.8987354930330009,-0.5595900239639454,0.0,1.0
126,0,126,3216,1,1.1,1.7,1.0,-0.8987354930330009,0.4578463832432223,0.0,4.0
127,0,127,2185,-1,1.4,1.1,1.0,-0.22044455489488926,-0.8987354930330013,2.0,0.0
128,0,128,1467,-1,2.3,2.0,1.0,1.8144282595194468,1.1361373213813344,5.0,5.0
129,0,129,1707,-1,1.7,0.65,1.0,0.4578463832432229,-1.9161719002401694,4.0,0.0
130,0,130,1472,1,1.1,1.55,1.0,-0.8987354930330009,0.11870091417416655,0.0,3.0
131,0,131,2425,-1,2.0,1.1,1.0,1.136137321381335,-0.8987354930330013,5.0,0.0
132,0,132,5621,1,2.3,1.55,1.0,1.8144282595194468,0.11870091417416655,5.0,3.0
133,0,133,3216,1,0.95,1.55,1.0,-1.2378809621020572,0.11870091417416655,0.0,3.0
134,0,134,3167,1,0.95,2.3,1.0,-1.2378809621020572,1.8144282595194459,0.0,5.0
135,0,135,1939,-1,1.1,0.35,1.0,-0.8987354930330009,-2.594462838378281,0.0,0.0
136,0,136,2066,-1,1.55,1.4,1.0,0.11870091417416709,-0.2204445548948897,3.0,2.0
137,0,137,1561,1,1.25,2.0,1.0,-0.5595900239639451,1.1361373213813344,1.0,5.0
138,0,138,2037,-1,1.85,1.55,1.0,0.7969918523122793,0.11870091417416655,4.0,3.0
139,0,139,3620,1,1.85,2.0,1.0,0.7969918523122793,1.1361373213813344,4.0,5.0
140,0,140,1235,1,0.35,1.85,1.0,-2.5944628383782815,0.7969918523122785,0.0,4.0
141,0,141,3726,1,1.4,1.7,1.0,-0.22044455489488926,0.4578463832432223,2.0,4.0
142,0,142,1764,1,1.25,1.1,1.0,-0.5595900239639451,-0.8987354930330013,1.0,0.0
143,0,143,4016,-1,2.0,1.4,1.0,1.136137321381335,-0.2204445548948897,5.0,2.0
144,0,144,2365,1,1.1,2.0,1.0,-0.8987354930330009,1.1361373213813344,0.0,5.0
145,0,145,1583,1,1.55,1.55,1.0,0.11870091417416709,0.11870091417416655,3.0,3.0
146,0,146,5406,-1,1.55,1.25,1.0,0.11870091417416709,-0.5595900239639454,3.0,1.0
147,0,147,2418,1,1.25,2.0,1.0,-0.5595900239639451,1.1361373213813344,1.0,5.0
148,0,148,5198,-1,1.4,1.25,1.0,-0.22044455489488926,-0.5595900239639454,2.0,1.0
149,0,149,4101,1,1.1,1.85,1.0,-0.8987354930330009,0.7969918523122785,0.0,4.0
150,0,150,3167,1,1.55,2.0,1.0,0.11870091417416709,1.1361373213813344,3.0,5.0
151,0,151,1675,-1,1.85,0.95,1.0,0.7969918523122793,-1.2378809621020574,4.0,0.0
152,0,152,1655,1,1.7,2.0,1.0,0.4578463832432229,1.1361373213813344,4.0,5.0
153,0,153,1870,-1,1.55,1.1,1.0,0.11870091417416709,-0.8987354930330013,3.0,0.0
154,0,154,2637,-1,1.55,1.1,1.0,0.11870091417416709,-0.8987354930330013,3.0,0.0
155,0,155,3613,1,2.0,2.0,1.0,1.136137321381335,1.1361373213813344,5.0,5.0
156,0,156,1854,-1,2.3,1.55,1.0,1.8144282595194468,0.11870091417416655,5.0,3.0
157,0,157,1999,-1,2.0,1.55,1.0,1.136137321381335,0.11870091417416655,5.0,3.0
158,0,158,1979,-1,2.0,1.1,1.0,1.136137321381335,-0.8987354930330013,5.0,0.0
159,0,159,1987,-1,2.3,1.1,1.0,1.8144282595194468,-0.8987354930330013,5.0,0.0
160,0,160,1573,-1,0.35,1.1,2.0,-2.5944628383782815,-0.8987354930330013,0.0,0.0
161,0,161,1712,1,1.85,1.85,2.0,0.7969918523122793,0.7969918523122785,4.0,4.0
162,0,162,2040,-1,1.55,1.7,2.0,0.11870091417416709,0.4578463832432223,3.0,4.0
163,0,163,2372,1,2.0,1.85,2.0,1.136137321381335,0.7969918523122785,5.0,4.0
164,0,164,4185,-1,2.0,1.7,2.0,1.136137321381335,0.4578463832432223,5.0,4.0
165,0,165,3429,1,1.1,1.25,2.0,-0.8987354930330009,-0.5595900239639454,0.0,1.0
166,0,166,2044,-1,1.4,1.55,2.0,-0.22044455489488926,0.11870091417416655,2.0,3.0
167,0,167,2542,1,2.0,0.95,2.0,1.136137321381335,-1.2378809621020574,5.0,0.0
168,0,168,1576,1,2.0,1.25,2.0,1.136137321381335,-0.5595900239639454,5.0,1.0
169,0,169,2497,-1,1.1,1.1,2.0,-0.8987354930330009,-0.8987354930330013,0.0,0.0
170,0,170,2511,1,1.85,1.1,2.0,0.7969918523122793,-0.8987354930330013,4.0,0.0
171,0,171,1564,1,1.55,1.55,2.0,0.11870091417416709,0.11870091417416655,3.0,3.0
172,0,172,1616,1,1.55,0.95,2.0,0.11870091417416709,-1.2378809621020574,3.0,0.0
173,0,173,2987,1,2.0,1.7,2.0,1.136137321381335,0.4578463832432223,5.0,4.0
174,0,174,3625,-1,1.7,2.0,2.0,0.4578463832432229,1.1361373213813344,4.0,5.0
175,0,175,2226,-1,1.1,2.0,2.0,-0.8987354930330009,1.1361373213813344,0.0,5.0
176,0,176,2179,-1,0.8,1.55,2.0,-1.577026431171113,0.11870091417416655,0.0,3.0
177,0,177,1847,-1,0.65,1.85,2.0,-1.9161719002401691,0.7969918523122785,0.0,4.0
178,0,178,1569,1,1.25,0.65,2.0,-0.5595900239639451,-1.9161719002401694,1.0,0.0
179,0,179,2371,-1,1.1,2.0,2.0,-0.8987354930330009,1.1361373213813344,0.0,5.0
180,0,180,2482,-1,1.1,1.85,2.0,-0.8987354930330009,0.7969918523122785,0.0,4.0
181,0,181,2747,-1,0.95,1.1,2.0,-1.2378809621020572,-0.8987354930330013,0.0,0.0
182,0,182,2918,1,2.0,1.55,2.0,1.136137321381335,0.11870091417416655,5.0,3.0
183,0,183,3706,1,2.0,1.85,2.0,1.136137321381335,0.7969918523122785,5.0,4.0
184,0,184,3625,1,2.0,1.1,2.0,1.136137321381335,-0.8987354930330013,5.0,0.0
185,0,185,3938,-1,0.8,0.95,2.0,-1.577026431171113,-1.2378809621020574,0.0,0.0
186,0,186,2329,-1,0.65,0.95,2.0,-1.9161719002401691,-1.2378809621020574,0.0,0.0
187,0,187,2028,-1,1.25,1.7,2.0,-0.5595900239639451,0.4578463832432223,1.0,4.0
188,0,188,1665,1,1.85,0.35,2.0,0.7969918523122793,-2.594462838378281,4.0,0.0
189,0,189,1580,1,2.3,0.95,2.0,1.8144282595194468,-1.2378809621020574,5.0,0.0
190,0,190,4189,-1,1.7,2.3,2.0,0.4578463832432229,1.8144282595194459,4.0,5.0
191,0,191,2626,-1,1.7,1.85,2.0,0.4578463832432229,0.7969918523122785,4.0,4.0
192,0,192,3783,1,1.7,1.25,2.0,0.4578463832432229,-0.5595900239639454,4.0,1.0
193,0,193,2920,-1,1.55,2.0,2.0,0.11870091417416709,1.1361373213813344,3.0,5.0
194,0,194,4843,-1,1.25,1.1,2.0,-0.5595900239639451,-0.8987354930330013,1.0,0.0
195,0,195,5275,-1,1.4,1.7,2.0,-0.22044455489488926,0.4578463832432223,2.0,4.0
196,0,196,5630,-1,1.1,1.4,2.0,-0.8987354930330009,-0.2204445548948897,0.0,2.0
197,0,197,1871,1,2.0,1.25,2.0,1.136137321381335,-0.5595900239639454,5.0,1.0
198,0,198,4173,1,1.85,1.25,2.0,0.7969918523122793,-0.5595900239639454,4.0,1.0
199,0,199,2828,-1,1.55,1.85,2.0,0.11870091417416709,0.7969918523122785,3.0,4.0
200,0,200,2166,-1,1.85,1.1,1.0,0.7969918523122793,-0.8987354930330013,4.0,0.0
201,0,201,2263,-1,2.0,1.55,1.0,1.136137321381335,0.11870091417416655,5.0,3.0
202,0,202,1491,1,0.8,1.55,1.0,-1.577026431171113,0.11870091417416655,0.0,3.0
203,0,203,1697,-1,1.1,1.25,1.0,-0.8987354930330009,-0.5595900239639454,0.0,1.0
204,0,204,2250,1,1.55,1.7,1.0,0.11870091417416709,0.4578463832432223,3.0,4.0
205,0,205,2017,-1,1.7,1.25,1.0,0.4578463832432229,-0.5595900239639454,4.0,1.0
206,0,206,2098,1,1.7,1.85,1.0,0.4578463832432229,0.7969918523122785,4.0,4.0
207,0,207,1744,-1,2.0,1.25,1.0,1.136137321381335,-0.5595900239639454,5.0,1.0
208,0,208,2002,-1,1.85,1.85,1.0,0.7969918523122793,0.7969918523122785,4.0,4.0
209,0,209,2099,-1,2.0,1.1,1.0,1.136137321381335,-0.8987354930330013,5.0,0.0
210,0,210,4340,-1,1.4,1.7,1.0,-0.22044455489488926,0.4578463832432223,2.0,4.0
211,0,211,2085,1,1.55,1.85,1.0,0.11870091417416709,0.7969918523122785,3.0,4.0
212,0,212,2755,1,1.55,2.0,1.0,0.11870091417416709,1.1361373213813344,3.0,5.0
213,0,213,2265,-1,2.0,1.85,1.0,1.136137321381335,0.7969918523122785,5.0,4.0
214,0,214,1866,1,1.25,1.7,1.0,-0.5595900239639451,0.4578463832432223,1.0,4.0
215,0,215,2166,-1,1.85,0.35,1.0,0.7969918523122793,-2.594462838378281,4.0,0.0
216,0,216,4828,1,1.25,1.1,1.0,-0.5595900239639451,-0.8987354930330013,1.0,0.0
217,0,217,2376,-1,2.0,0.95,1.0,1.136137321381335,-1.2378809621020574,5.0,0.0
218,0,218,2106,-1,2.0,1.85,1.0,1.136137321381335,0.7969918523122785,5.0,4.0
219,0,219,2328,-1,1.85,1.25,1.0,0.7969918523122793,-0.5595900239639454,4.0,1.0
220,0,220,4574,-1,2.0,1.7,1.0,1.136137321381335,0.4578463832432223,5.0,4.0
221,0,221,1708,1,1.1,1.4,1.0,-0.8987354930330009,-0.2204445548948897,0.0,2.0
222,0,222,1739,1,1.1,1.85,1.0,-0.8987354930330009,0.7969918523122785,0.0,4.0
223,0,223,1466,1,0.35,1.1,1.0,-2.5944628383782815,-0.8987354930330013,0.0,0.0
224,0,224,4432,-1,1.7,2.3,1.0,0.4578463832432229,1.8144282595194459,4.0,5.0
225,0,225,1759,1,1.1,2.0,1.0,-0.8987354930330009,1.1361373213813344,0.0,5.0
226,0,226,1533,1,1.1,2.0,1.0,-0.8987354930330009,1.1361373213813344,0.0,5.0
227,0,227,1556,-1,1.25,0.65,1.0,-0.5595900239639451,-1.9161719002401694,1.0,0.0
228,0,228,1545,-1,1.55,1.55,1.0,0.11870091417416709,0.11870091417416655,3.0,3.0
229,0,229,1291,1,1.7,2.0,1.0,0.4578463832432229,1.1361373213813344,4.0,5.0
230,0,230,1544,1,1.4,1.55,1.0,-0.22044455489488926,0.11870091417416655,2.0,3.0
231,0,231,4190,1,0.65,0.95,1.0,-1.9161719002401691,-1.2378809621020574,0.0,0.0
232,0,232,1712,1,0.65,1.85,1.0,-1.9161719002401691,0.7969918523122785,0.0,4.0
233,0,233,2958,1,1.55,0.95,1.0,0.11870091417416709,-1.2378809621020574,3.0,0.0
234,0,234,1618,-1,2.3,0.95,1.0,1.8144282595194468,-1.2378809621020574,5.0,0.0
235,0,235,1474,-1,2.0,1.7,1.0,1.136137321381335,0.4578463832432223,5.0,4.0
236,0,236,1715,-1,2.0,1.25,1.0,1.136137321381335,-0.5595900239639454,5.0,1.0
237,0,237,1819,1,1.1,1.1,1.0,-0.8987354930330009,-0.8987354930330013,0.0,0.0
238,0,238,1454,1,0.95,1.1,1.0,-1.2378809621020572,-0.8987354930330013,0.0,0.0
239,0,239,3480,-1,0.8,0.95,1.0,-1.577026431171113,-1.2378809621020574,0.0,0.0
240,1,0,4960,-1,0.2,0.5,2.0,-0.7095670447678752,0.6278639778292716,0.0,5.0
241,1,1,6438,-1,0.5,0.65,2.0,0.5660591031294269,1.27644656611776,5.0,5.0
242,1,2,5125,-1,0.2,0.65,2.0,-0.7095670447678752,1.27644656611776,0.0,5.0
243,1,3,4268,-1,0.2,0.5,2.0,-0.7095670447678752,0.6278639778292716,0.0,5.0
244,1,4,4726,1,0.5,0.35,2.0,0.5660591031294269,-0.020718610459216674,5.0,2.0
245,1,5,5392,1,0.5,0.35,2.0,0.5660591031294269,-0.020718610459216674,5.0,2.0
246,1,6,3471,1,0.2,0.0,2.0,-0.7095670447678752,-1.5340779831323557,0.0,0.0
247,1,7,4299,1,0.5,0.35,2.0,0.5660591031294269,-0.020718610459216674,5.0,2.0
248,1,8,4299,1,0.5,0.5,2.0,0.5660591031294269,0.6278639778292716,5.0,5.0
249,1,9,4088,-1,0.5,0.65,2.0,0.5660591031294269,1.27644656611776,5.0,5.0
250,1,10,3147,-1,0.0,0.2,2.0,-1.55998447669941,-0.6693011987477047,0.0,0.0
251,1,11,3923,-1,0.0,0.2,2.0,-1.55998447669941,-0.6693011987477047,0.0,0.0
252,1,12,3889,-1,0.35,0.65,2.0,-0.07175397081922431,1.27644656611776,2.0,5.0
253,1,13,4426,-1,0.0,0.2,2.0,-1.55998447669941,-0.6693011987477047,0.0,0.0
254,1,14,3035,1,0.65,0.0,2.0,1.203872177078078,-1.5340779831323557,5.0,0.0
255,1,15,4915,1,0.2,0.2,2.0,-0.7095670447678752,-0.6693011987477047,0.0,0.0
256,1,16,5395,1,0.5,0.35,2.0,0.5660591031294269,-0.020718610459216674,5.0,2.0
257,1,17,5623,1,0.35,0.65,2.0,-0.07175397081922431,1.27644656611776,2.0,5.0
258,1,18,6208,1,0.35,0.2,2.0,-0.07175397081922431,-0.6693011987477047,2.0,0.0
259,1,19,2323,1,0.2,0.0,2.0,-0.7095670447678752,-1.5340779831323557,0.0,0.0
260,1,20,3491,-1,0.35,0.2,2.0,-0.07175397081922431,-0.6693011987477047,2.0,0.0
261,1,21,5468,1,0.65,0.2,2.0,1.203872177078078,-0.6693011987477047,5.0,0.0
262,1,22,6446,-1,0.5,0.65,2.0,0.5660591031294269,1.27644656611776,5.0,5.0
263,1,23,4541,1,0.35,0.35,2.0,-0.07175397081922431,-0.020718610459216674,2.0,2.0
264,1,24,3991,-1,0.0,0.8,2.0,-1.55998447669941,1.925029154406248,0.0,5.0
265,1,25,4235,-1,0.5,0.65,2.0,0.5660591031294269,1.27644656611776,5.0,5.0
266,1,26,5489,1,0.65,0.65,2.0,1.203872177078078,1.27644656611776,5.0,5.0
267,1,27,6380,-1,0.5,0.8,2.0,0.5660591031294269,1.925029154406248,5.0,5.0
268,1,28,3385,1,0.5,0.05,2.0,0.5660591031294269,-1.317883787036193,5.0,0.0
269,1,29,4479,1,0.5,0.5,2.0,0.5660591031294269,0.6278639778292716,5.0,5.0
270,1,30,3546,-1,0.2,0.65,2.0,-0.7095670447678752,1.27644656611776,0.0,5.0
271,1,31,3266,1,0.8,0.2,2.0,1.8416852510267292,-0.6693011987477047,5.0,0.0
272,1,32,2267,1,0.2,0.05,2.0,-0.7095670447678752,-1.317883787036193,0.0,0.0
273,1,33,3808,-1,0.2,0.35,2.0,-0.7095670447678752,-0.020718610459216674,0.0,2.0
274,1,34,4033,-1,0.65,0.35,2.0,1.203872177078078,-0.020718610459216674,5.0,2.0
275,1,35,3093,-1,0.2,0.5,2.0,-0.7095670447678752,0.6278639778292716,0.0,5.0
276,1,36,3486,1,0.05,0.35,2.0,-1.3473801187165264,-0.020718610459216674,0.0,2.0
277,1,37,5401,-1,0.05,0.5,2.0,-1.3473801187165264,0.6278639778292716,0.0,5.0
278,1,38,2833,-1,0.5,0.05,2.0,0.5660591031294269,-1.317883787036193,5.0,0.0
279,1,39,1746,-1,0.0,0.5,2.0,-1.55998447669941,0.6278639778292716,0.0,5.0
280,1,40,3113,1,0.5,0.8,1.0,0.5660591031294269,1.925029154406248,5.0,5.0
281,1,41,4273,1,0.05,0.5,1.0,-1.3473801187165264,0.6278639778292716,0.0,5.0
282,1,42,2400,-1,0.5,0.2,1.0,0.5660591031294269,-0.6693011987477047,5.0,0.0
283,1,43,2710,1,0.35,0.5,1.0,-0.07175397081922431,0.6278639778292716,2.0,5.0
284,1,44,3446,-1,0.5,0.2,1.0,0.5660591031294269,-0.6693011987477047,5.0,0.0
285,1,45,3993,-1,0.65,0.5,1.0,1.203872177078078,0.6278639778292716,5.0,5.0
286,1,46,2389,-1,0.65,0.05,1.0,1.203872177078078,-1.317883787036193,5.0,0.0
287,1,47,1404,-1,0.2,0.0,1.0,-0.7095670447678752,-1.5340779831323557,0.0,0.0
288,1,48,3249,1,0.05,0.2,1.0,-1.3473801187165264,-0.6693011987477047,0.0,0.0
289,1,49,1822,-1,0.35,0.0,1.0,-0.07175397081922431,-1.5340779831323557,2.0,0.0
290,1,50,1994,-1,0.2,0.0,1.0,-0.7095670447678752,-1.5340779831323557,0.0,0.0
291,1,51,2700,-1,0.65,0.2,1.0,1.203872177078078,-0.6693011987477047,5.0,0.0
292,1,52,1886,-1,0.5,0.0,1.0,0.5660591031294269,-1.5340779831323557,5.0,0.0
293,1,53,3326,1,0.65,0.65,1.0,1.203872177078078,1.27644656611776,5.0,5.0
294,1,54,3299,1,0.2,0.8,1.0,-0.7095670447678752,1.925029154406248,0.0,5.0
295,1,55,2521,1,0.0,0.65,1.0,-1.55998447669941,1.27644656611776,0.0,5.0
296,1,56,2952,-1,0.05,0.5,1.0,-1.3473801187165264,0.6278639778292716,0.0,5.0
297,1,57,2415,-1,0.35,0.2,1.0,-0.07175397081922431,-0.6693011987477047,2.0,0.0
298,1,58,3498,1,0.2,0.2,1.0,-0.7095670447678752,-0.6693011987477047,0.0,0.0
299,1,59,2270,1,0.0,0.2,1.0,-1.55998447669941,-0.6693011987477047,0.0,0.0
300,1,60,2513,1,0.35,0.5,1.0,-0.07175397081922431,0.6278639778292716,2.0,5.0
301,1,61,2738,1,0.65,0.35,1.0,1.203872177078078,-0.020718610459216674,5.0,2.0
302,1,62,3314,-1,0.35,0.5,1.0,-0.07175397081922431,0.6278639778292716,2.0,5.0
303,1,63,3086,1,0.05,0.2,1.0,-1.3473801187165264,-0.6693011987477047,0.0,0.0
304,1,64,2393,1,0.5,0.5,1.0,0.5660591031294269,0.6278639778292716,5.0,5.0
305,1,65,2560,1,0.05,0.2,1.0,-1.3473801187165264,-0.6693011987477047,0.0,0.0
306,1,66,3130,-1,0.65,0.35,1.0,1.203872177078078,-0.020718610459216674,5.0,2.0
307,1,67,4404,-1,0.65,0.5,1.0,1.203872177078078,0.6278639778292716,5.0,5.0
308,1,68,1777,-1,0.65,0.2,1.0,1.203872177078078,-0.6693011987477047,5.0,0.0
309,1,69,2386,-1,0.5,0.35,1.0,0.5660591031294269,-0.020718610459216674,5.0,2.0
310,1,70,2762,-1,0.5,0.35,1.0,0.5660591031294269,-0.020718610459216674,5.0,2.0
311,1,71,1868,-1,0.65,0.2,1.0,1.203872177078078,-0.6693011987477047,5.0,0.0
312,1,72,2631,-1,0.65,0.65,1.0,1.203872177078078,1.27644656611776,5.0,5.0
313,1,73,3073,-1,0.65,0.5,1.0,1.203872177078078,0.6278639778292716,5.0,5.0
314,1,74,2059,1,0.0,0.35,1.0,-1.55998447669941,-0.020718610459216674,0.0,2.0
315,1,75,1611,1,0.2,0.65,1.0,-0.7095670447678752,1.27644656611776,0.0,5.0
316,1,76,1721,-1,0.5,0.0,1.0,0.5660591031294269,-1.5340779831323557,5.0,0.0
317,1,77,2535,1,0.2,0.0,1.0,-0.7095670447678752,-1.5340779831323557,0.0,0.0
318,1,78,2177,1,0.65,0.5,1.0,1.203872177078078,0.6278639778292716,5.0,5.0
319,1,79,2577,1,0.0,0.65,1.0,-1.55998447669941,1.27644656611776,0.0,5.0
320,1,80,2741,1,0.5,0.2,2.0,0.5660591031294269,-0.6693011987477047,5.0,0.0
321,1,81,2186,-1,0.0,0.65,2.0,-1.55998447669941,1.27644656611776,0.0,5.0
322,1,82,2803,-1,0.05,0.2,2.0,-1.3473801187165264,-0.6693011987477047,0.0,0.0
323,1,83,1702,-1,0.0,0.35,2.0,-1.55998447669941,-0.020718610459216674,0.0,2.0
324,1,84,2152,-1,0.2,0.2,2.0,-0.7095670447678752,-0.6693011987477047,0.0,0.0
325,1,85,1414,1,0.2,0.65,2.0,-0.7095670447678752,1.27644656611776,0.0,5.0
326,1,86,1979,1,0.5,0.35,2.0,0.5660591031294269,-0.020718610459216674,5.0,2.0
327,1,87,1929,1,0.5,0.35,2.0,0.5660591031294269,-0.020718610459216674,5.0,2.0
328,1,88,1618,-1,0.0,0.65,2.0,-1.55998447669941,1.27644656611776,0.0,5.0
329,1,89,1534,-1,0.2,0.0,2.0,-0.7095670447678752,-1.5340779831323557,0.0,0.0
330,1,90,1384,-1,0.35,0.5,2.0,-0.07175397081922431,0.6278639778292716,2.0,5.0
331,1,91,1343,1,0.2,0.0,2.0,-0.7095670447678752,-1.5340779831323557,0.0,0.0
332,1,92,1683,1,0.2,0.0,2.0,-0.7095670447678752,-1.5340779831323557,0.0,0.0
333,1,93,2062,1,0.65,0.05,2.0,1.203872177078078,-1.317883787036193,5.0,0.0
334,1,94,1539,1,0.65,0.5,2.0,1.203872177078078,0.6278639778292716,5.0,5.0
335,1,95,1601,1,0.65,0.65,2.0,1.203872177078078,1.27644656611776,5.0,5.0
336,1,96,1858,-1,0.05,0.2,2.0,-1.3473801187165264,-0.6693011987477047,0.0,0.0
337,1,97,1467,1,0.5,0.5,2.0,0.5660591031294269,0.6278639778292716,5.0,5.0
338,1,98,1867,-1,0.65,0.65,2.0,1.203872177078078,1.27644656611776,5.0,5.0
339,1,99,1450,-1,0.2,0.8,2.0,-0.7095670447678752,1.925029154406248,0.0,5.0
340,1,100,2378,-1,0.65,0.5,2.0,1.203872177078078,0.6278639778292716,5.0,5.0
341,1,101,2138,1,0.35,0.5,2.0,-0.07175397081922431,0.6278639778292716,2.0,5.0
342,1,102,1414,-1,0.0,0.2,2.0,-1.55998447669941,-0.6693011987477047,0.0,0.0
343,1,103,1971,-1,0.65,0.35,2.0,1.203872177078078,-0.020718610459216674,5.0,2.0
344,1,104,1983,1,0.65,0.2,2.0,1.203872177078078,-0.6693011987477047,5.0,0.0
345,1,105,2258,1,0.65,0.2,2.0,1.203872177078078,-0.6693011987477047,5.0,0.0
346,1,106,1400,1,0.5,0.2,2.0,0.5660591031294269,-0.6693011987477047,5.0,0.0
347,1,107,1192,1,0.5,0.0,2.0,0.5660591031294269,-1.5340779831323557,5.0,0.0
348,1,108,1291,1,0.65,0.2,2.0,1.203872177078078,-0.6693011987477047,5.0,0.0
349,1,109,1035,1,0.35,0.2,2.0,-0.07175397081922431,-0.6693011987477047,2.0,0.0
350,1,110,2068,1,0.05,0.5,2.0,-1.3473801187165264,0.6278639778292716,0.0,5.0
351,1,111,1164,1,0.5,0.0,2.0,0.5660591031294269,-1.5340779831323557,5.0,0.0
352,1,112,1482,-1,0.65,0.5,2.0,1.203872177078078,0.6278639778292716,5.0,5.0
353,1,113,1122,1,0.35,0.0,2.0,-0.07175397081922431,-1.5340779831323557,2.0,0.0
354,1,114,1763,1,0.05,0.2,2.0,-1.3473801187165264,-0.6693011987477047,0.0,0.0
355,1,115,2008,1,0.65,0.35,2.0,1.203872177078078,-0.020718610459216674,5.0,2.0
356,1,116,1831,1,0.05,0.5,2.0,-1.3473801187165264,0.6278639778292716,0.0,5.0
357,1,117,2109,-1,0.35,0.5,2.0,-0.07175397081922431,0.6278639778292716,2.0,5.0
358,1,118,1709,1,0.65,0.5,2.0,1.203872177078078,0.6278639778292716,5.0,5.0
359,1,119,1236,-1,0.5,0.8,2.0,0.5660591031294269,1.925029154406248,5.0,5.0
360,1,120,2362,1,0.2,0.65,1.0,-0.7095670447678752,1.27644656611776,0.0,5.0
361,1,121,1504,1,0.0,0.2,1.0,-1.55998447669941,-0.6693011987477047,0.0,0.0
362,1,122,1769,-1,0.5,0.05,1.0,0.5660591031294269,-1.317883787036193,5.0,0.0
363,1,123,1998,1,0.35,0.05,1.0,-0.07175397081922431,-1.317883787036193,2.0,0.0
364,1,124,1194,1,0.35,0.5,1.0,-0.07175397081922431,0.6278639778292716,2.0,5.0
365,1,125,1135,1,0.05,0.65,1.0,-1.3473801187165264,1.27644656611776,0.0,5.0
366,1,126,1716,-1,0.65,0.5,1.0,1.203872177078078,0.6278639778292716,5.0,5.0
367,1,127,1320,-1,0.5,0.65,1.0,0.5660591031294269,1.27644656611776,5.0,5.0
368,1,128,1241,1,0.2,0.5,1.0,-0.7095670447678752,0.6278639778292716,0.0,5.0
369,1,129,1278,1,0.8,0.5,1.0,1.8416852510267292,0.6278639778292716,5.0,5.0
370,1,130,1160,-1,0.35,0.2,1.0,-0.07175397081922431,-0.6693011987477047,2.0,0.0
371,1,131,1596,-1,0.2,0.35,1.0,-0.7095670447678752,-0.020718610459216674,0.0,2.0
372,1,132,1158,-1,0.65,0.2,1.0,1.203872177078078,-0.6693011987477047,5.0,0.0
373,1,133,1504,1,0.5,0.5,1.0,0.5660591031294269,0.6278639778292716,5.0,5.0
374,1,134,1069,1,0.0,0.5,1.0,-1.55998447669941,0.6278639778292716,0.0,5.0
375,1,135,1009,1,0.2,0.65,1.0,-0.7095670447678752,1.27644656611776,0.0,5.0
376,1,136,1124,1,0.65,0.65,1.0,1.203872177078078,1.27644656611776,5.0,5.0
377,1,137,1174,-1,0.5,0.2,1.0,0.5660591031294269,-0.6693011987477047,5.0,0.0
378,1,138,1020,-1,0.65,0.0,1.0,1.203872177078078,-1.5340779831323557,5.0,0.0
379,1,139,1150,1,0.0,0.35,1.0,-1.55998447669941,-0.020718610459216674,0.0,2.0
380,1,140,1254,-1,0.65,0.5,1.0,1.203872177078078,0.6278639778292716,5.0,5.0
381,1,141,1898,-1,0.5,0.0,1.0,0.5660591031294269,-1.5340779831323557,5.0,0.0
382,1,142,1184,1,0.2,0.35,1.0,-0.7095670447678752,-0.020718610459216674,0.0,2.0
383,1,143,1012,-1,0.8,0.0,1.0,1.8416852510267292,-1.5340779831323557,5.0,0.0
384,1,144,2056,-1,0.35,0.65,1.0,-0.07175397081922431,1.27644656611776,2.0,5.0
385,1,145,1025,-1,0.2,0.0,1.0,-0.7095670447678752,-1.5340779831323557,0.0,0.0
386,1,146,1123,1,0.35,0.5,1.0,-0.07175397081922431,0.6278639778292716,2.0,5.0
387,1,147,1224,1,0.0,0.2,1.0,-1.55998447669941,-0.6693011987477047,0.0,0.0
388,1,148,1927,-1,0.5,0.2,1.0,0.5660591031294269,-0.6693011987477047,5.0,0.0
389,1,149,1103,-1,0.8,0.5,1.0,1.8416852510267292,0.6278639778292716,5.0,5.0
390,1,150,1177,1,0.0,0.5,1.0,-1.55998447669941,0.6278639778292716,0.0,5.0
391,1,151,1173,1,0.5,0.65,1.0,0.5660591031294269,1.27644656611776,5.0,5.0
392,1,152,1127,1,0.35,0.35,1.0,-0.07175397081922431,-0.020718610459216674,2.0,2.0
393,1,153,1540,1,0.2,0.05,1.0,-0.7095670447678752,-1.317883787036193,0.0,0.0
394,1,154,1574,1,0.35,0.5,1.0,-0.07175397081922431,0.6278639778292716,2.0,5.0
395,1,155,1212,-1,0.2,0.05,1.0,-0.7095670447678752,-1.317883787036193,0.0,0.0
396,1,156,1247,1,0.2,0.35,1.0,-0.7095670447678752,-0.020718610459216674,0.0,2.0
397,1,157,1096,1,0.2,0.65,1.0,-0.7095670447678752,1.27644656611776,0.0,5.0
398,1,158,1163,-1,0.65,0.2,1.0,1.203872177078078,-0.6693011987477047,5.0,0.0
399,1,159,1068,-1,0.35,0.0,1.0,-0.07175397081922431,-1.5340779831323557,2.0,0.0
400,1,160,1524,1,0.2,0.0,2.0,-0.7095670447678752,-1.5340779831323557,0.0,0.0
401,1,161,1581,1,0.65,0.5,2.0,1.203872177078078,0.6278639778292716,5.0,5.0
402,1,162,1901,1,0.2,0.05,2.0,-0.7095670447678752,-1.317883787036193,0.0,0.0
403,1,163,1353,-1,0.35,0.5,2.0,-0.07175397081922431,0.6278639778292716,2.0,5.0
404,1,164,1977,1,0.35,0.0,2.0,-0.07175397081922431,-1.5340779831323557,2.0,0.0
405,1,165,2311,-1,0.65,0.65,2.0,1.203872177078078,1.27644656611776,5.0,5.0
406,1,166,4034,1,0.35,0.2,2.0,-0.07175397081922431,-0.6693011987477047,2.0,0.0
407,1,167,4496,-1,0.05,0.65,2.0,-1.3473801187165264,1.27644656611776,0.0,5.0
408,1,168,3360,1,0.65,0.2,2.0,1.203872177078078,-0.6693011987477047,5.0,0.0
409,1,169,2518,1,0.2,0.05,2.0,-0.7095670447678752,-1.317883787036193,0.0,0.0
410,1,170,2633,-1,0.5,0.0,2.0,0.5660591031294269,-1.5340779831323557,5.0,0.0
411,1,171,1823,-1,0.0,0.2,2.0,-1.55998447669941,-0.6693011987477047,0.0,0.0
412,1,172,1877,-1,0.35,0.5,2.0,-0.07175397081922431,0.6278639778292716,2.0,5.0
413,1,173,1594,-1,0.0,0.2,2.0,-1.55998447669941,-0.6693011987477047,0.0,0.0
414,1,174,1612,-1,0.35,0.5,2.0,-0.07175397081922431,0.6278639778292716,2.0,5.0
415,1,175,1802,-1,0.0,0.5,2.0,-1.55998447669941,0.6278639778292716,0.0,5.0
416,1,176,1411,-1,0.2,0.65,2.0,-0.7095670447678752,1.27644656611776,0.0,5.0
417,1,177,1388,-1,0.0,0.5,2.0,-1.55998447669941,0.6278639778292716,0.0,5.0
418,1,178,1358,1,0.2,0.35,2.0,-0.7095670447678752,-0.020718610459216674,0.0,2.0
419,1,179,1781,-1,0.5,0.05,2.0,0.5660591031294269,-1.317883787036193,5.0,0.0
420,1,180,1297,-1,0.8,0.5,2.0,1.8416852510267292,0.6278639778292716,5.0,5.0
421,1,181,1113,-1,0.2,0.65,2.0,-0.7095670447678752,1.27644656611776,0.0,5.0
422,1,182,2545,-1,0.5,0.2,2.0,0.5660591031294269,-0.6693011987477047,5.0,0.0
423,1,183,1569,-1,0.35,0.05,2.0,-0.07175397081922431,-1.317883787036193,2.0,0.0
424,1,184,2018,-1,0.5,0.65,2.0,0.5660591031294269,1.27644656611776,5.0,5.0
425,1,185,1145,1,0.5,0.2,2.0,0.5660591031294269,-0.6693011987477047,5.0,0.0
426,1,186,1527,-1,0.2,0.35,2.0,-0.7095670447678752,-0.020718610459216674,0.0,2.0
427,1,187,1212,1,0.65,0.5,2.0,1.203872177078078,0.6278639778292716,5.0,5.0
428,1,188,1160,1,0.5,0.65,2.0,0.5660591031294269,1.27644656611776,5.0,5.0
429,1,189,1098,1,0.8,0.5,2.0,1.8416852510267292,0.6278639778292716,5.0,5.0
430,1,190,1057,-1,0.2,0.65,2.0,-0.7095670447678752,1.27644656611776,0.0,5.0
431,1,191,838,1,0.8,0.0,2.0,1.8416852510267292,-1.5340779831323557,5.0,0.0
432,1,192,1373,-1,0.5,0.5,2.0,0.5660591031294269,0.6278639778292716,5.0,5.0
433,1,193,1476,-1,0.0,0.35,2.0,-1.55998447669941,-0.020718610459216674,0.0,2.0
434,1,194,1187,-1,0.2,0.5,2.0,-0.7095670447678752,0.6278639778292716,0.0,5.0
435,1,195,1047,1,0.35,0.65,2.0,-0.07175397081922431,1.27644656611776,2.0,5.0
436,1,196,1063,1,0.65,0.2,2.0,1.203872177078078,-0.6693011987477047,5.0,0.0
437,1,197,861,-1,0.35,0.35,2.0,-0.07175397081922431,-0.020718610459216674,2.0,2.0
438,1,198,1220,-1,0.2,0.35,2.0,-0.7095670447678752,-0.020718610459216674,0.0,2.0
439,1,199,757,1,0.65,0.0,2.0,1.203872177078078,-1.5340779831323557,5.0,0.0
440,1,200,1829,1,0.5,0.8,1.0,0.5660591031294269,1.925029154406248,5.0,5.0
441,1,201,1958,1,0.05,0.5,1.0,-1.3473801187165264,0.6278639778292716,0.0,5.0
442,1,202,1335,-1,0.5,0.2,1.0,0.5660591031294269,-0.6693011987477047,5.0,0.0
443,1,203,1560,-1,0.35,0.5,1.0,-0.07175397081922431,0.6278639778292716,2.0,5.0
444,1,204,1322,-1,0.5,0.2,1.0,0.5660591031294269,-0.6693011987477047,5.0,0.0
445,1,205,1545,-1,0.65,0.5,1.0,1.203872177078078,0.6278639778292716,5.0,5.0
446,1,206,1385,-1,0.65,0.05,1.0,1.203872177078078,-1.317883787036193,5.0,0.0
447,1,207,2884,-1,0.2,0.0,1.0,-0.7095670447678752,-1.5340779831323557,0.0,0.0
448,1,208,1358,1,0.05,0.2,1.0,-1.3473801187165264,-0.6693011987477047,0.0,0.0
449,1,209,1663,-1,0.35,0.0,1.0,-0.07175397081922431,-1.5340779831323557,2.0,0.0
450,1,210,1382,-1,0.2,0.0,1.0,-0.7095670447678752,-1.5340779831323557,0.0,0.0
451,1,211,3400,-1,0.65,0.2,1.0,1.203872177078078,-0.6693011987477047,5.0,0.0
452,1,212,1058,-1,0.5,0.0,1.0,0.5660591031294269,-1.5340779831323557,5.0,0.0
453,1,213,882,1,0.65,0.65,1.0,1.203872177078078,1.27644656611776,5.0,5.0
454,1,214,1057,1,0.2,0.8,1.0,-0.7095670447678752,1.925029154406248,0.0,5.0
455,1,215,1229,1,0.0,0.65,1.0,-1.55998447669941,1.27644656611776,0.0,5.0
456,1,216,1375,-1,0.05,0.5,1.0,-1.3473801187165264,0.6278639778292716,0.0,5.0
457,1,217,819,-1,0.35,0.2,1.0,-0.07175397081922431,-0.6693011987477047,2.0,0.0
458,1,218,1925,1,0.2,0.2,1.0,-0.7095670447678752,-0.6693011987477047,0.0,0.0
459,1,219,1062,1,0.0,0.2,1.0,-1.55998447669941,-0.6693011987477047,0.0,0.0
460,1,220,1320,1,0.35,0.5,1.0,-0.07175397081922431,0.6278639778292716,2.0,5.0
461,1,221,1068,1,0.65,0.35,1.0,1.203872177078078,-0.020718610459216674,5.0,2.0
462,1,222,1506,-1,0.35,0.5,1.0,-0.07175397081922431,0.6278639778292716,2.0,5.0
463,1,223,883,1,0.05,0.2,1.0,-1.3473801187165264,-0.6693011987477047,0.0,0.0
464,1,224,959,1,0.5,0.5,1.0,0.5660591031294269,0.6278639778292716,5.0,5.0
465,1,225,1317,1,0.05,0.2,1.0,-1.3473801187165264,-0.6693011987477047,0.0,0.0
466,1,226,1176,-1,0.65,0.35,1.0,1.203872177078078,-0.020718610459216674,5.0,2.0
467,1,227,1196,-1,0.65,0.5,1.0,1.203872177078078,0.6278639778292716,5.0,5.0
468,1,228,1045,-1,0.65,0.2,1.0,1.203872177078078,-0.6693011987477047,5.0,0.0
469,1,229,1060,-1,0.5,0.35,1.0,0.5660591031294269,-0.020718610459216674,5.0,2.0
470,1,230,1112,-1,0.5,0.35,1.0,0.5660591031294269,-0.020718610459216674,5.0,2.0
471,1,231,1471,-1,0.65,0.2,1.0,1.203872177078078,-0.6693011987477047,5.0,0.0
472,1,232,1188,-1,0.65,0.65,1.0,1.203872177078078,1.27644656611776,5.0,5.0
473,1,233,1411,-1,0.65,0.5,1.0,1.203872177078078,0.6278639778292716,5.0,5.0
474,1,234,1345,1,0.0,0.35,1.0,-1.55998447669941,-0.020718610459216674,0.0,2.0
475,1,235,992,1,0.2,0.65,1.0,-0.7095670447678752,1.27644656611776,0.0,5.0
476,1,236,816,-1,0.5,0.0,1.0,0.5660591031294269,-1.5340779831323557,5.0,0.0
477,1,237,1740,1,0.2,0.0,1.0,-0.7095670447678752,-1.5340779831323557,0.0,0.0
478,1,238,1032,1,0.65,0.5,1.0,1.203872177078078,0.6278639778292716,5.0,5.0
479,1,239,1124,1,0.0,0.65,1.0,-1.55998447669941,1.27644656611776,0.0,5.0
480,2,0,4203,-1,1.1,2.3,2.0,-0.029681156073202257,1.1575650868549048,2.0,4.0
481,2,1,4734,1,2.75,2.15,2.0,1.6027824279529446,1.0091593064888915,4.0,3.0
482,2,2,4187,-1,0.5,2.6,2.0,-0.6233042775372557,1.4543766475869317,2.0,4.0
483,2,3,2945,-1,0.0,0.0,2.0,-1.1179902120906335,-1.1179902120906335,1.0,1.0
484,2,4,3554,1,2.3,0.95,2.0,1.1575650868549043,-0.17808693643921555,4.0,2.0
485,2,5,5791,1,1.1,0.2,2.0,-0.029681156073202257,-0.9201158382692824,2.0,2.0
486,2,6,630,-1,1.1,1.25,2.0,-0.029681156073202257,0.11872462429281125,2.0,3.0
487,2,7,3815,-1,0.95,1.95,2.0,-0.17808693643921575,0.8112849326675403,2.0,3.0
488,2,8,5328,1,0.65,0.0,2.0,-0.4748984971712424,-1.1179902120906335,2.0,1.0
489,2,9,6404,-1,2.75,2.15,2.0,1.6027824279529446,1.0091593064888915,4.0,3.0
490,2,10,2052,-1,0.0,2.75,2.0,-1.1179902120906335,1.602782427952945,1.0,4.0
491,2,11,5112,1,1.7,1.25,2.0,0.5639419653908511,0.11872462429281125,3.0,3.0
492,2,12,2769,-1,2.0,3.0,2.0,0.8607535261228777,1.8501253952296342,3.0,4.0
493,2,13,3526,-1,2.6,2.0,2.0,1.4543766475869313,0.8607535261228781,4.0,3.0
494,2,14,6337,1,1.25,0.35,2.0,0.118724624292811,-0.7717100579032691,3.0,2.0
495,2,15,2655,-1,0.5,2.9,2.0,-0.6233042775372557,1.7511882083189583,2.0,4.0
496,2,16,2385,1,0.95,0.5,2.0,-0.17808693643921575,-0.6233042775372557,2.0,2.0
497,2,17,1899,1,0.35,0.5,2.0,-0.7717100579032691,-0.6233042775372557,2.0,2.0
498,2,18,2165,1,1.1,0.0,2.0,-0.029681156073202257,-1.1179902120906335,2.0,1.0
499,2,19,2011,1,0.95,0.0,2.0,-0.17808693643921575,-1.1179902120906335,2.0,1.0
500,2,20,4543,1,0.0,0.0,2.0,-1.1179902120906335,-1.1179902120906335,1.0,1.0
501,2,21,3104,-1,0.35,3.0,2.0,-0.7717100579032691,1.8501253952296342,2.0,4.0
502,2,22,3357,1,0.35,0.05,2.0,-0.7717100579032691,-1.0685216186352957,2.0,1.0
503,2,23,2669,-1,0.0,1.4,2.0,-1.1179902120906335,0.26713040465882454,1.0,3.0
504,2,24,3132,1,0.65,0.0,2.0,-0.4748984971712424,-1.1179902120906335,2.0,1.0
505,2,25,8554,1,0.95,0.65,2.0,-0.17808693643921575,-0.4748984971712423,2.0,2.0
506,2,26,4247,-1,3.0,2.3,2.0,1.8501253952296335,1.1575650868549048,4.0,4.0
507,2,27,4917,-1,0.2,1.25,2.0,-0.9201158382692824,0.11872462429281125,2.0,3.0
508,2,28,5040,1,0.35,1.1,2.0,-0.7717100579032691,-0.029681156073202045,2.0,2.0
509,2,29,2385,1,2.3,0.0,2.0,1.1575650868549043,-1.1179902120906335,4.0,1.0
510,2,30,2413,-1,0.2,1.95,2.0,-0.9201158382692824,0.8112849326675403,2.0,3.0
511,2,31,2459,-1,0.95,2.3,2.0,-0.17808693643921575,1.1575650868549048,2.0,4.0
512,2,32,4277,-1,1.25,0.35,2.0,0.118724624292811,-0.7717100579032691,3.0,2.0
513,2,33,3671,1,0.05,0.2,2.0,-1.0685216186352957,-0.9201158382692824,1.0,2.0
514,2,34,1866,1,3.0,0.0,2.0,1.8501253952296335,-1.1179902120906335,4.0,1.0
515,2,35,2340,-1,0.5,0.65,2.0,-0.6233042775372557,-0.4748984971712423,2.0,2.0
516,2,36,4751,-1,0.0,2.75,2.0,-1.1179902120906335,1.602782427952945,1.0,4.0
517,2,37,5185,1,0.0,0.0,2.0,-1.1179902120906335,-1.1179902120906335,1.0,1.0
518,2,38,2073,1,2.0,0.05,2.0,0.8607535261228777,-1.0685216186352957,3.0,1.0
519,2,39,2031,-1,0.0,2.0,2.0,-1.1179902120906335,0.8607535261228781,1.0,3.0
520,2,40,4138,-1,0.95,0.0,1.0,-0.17808693643921575,-1.1179902120906335,2.0,1.0
521,2,41,1615,-1,1.1,0.0,1.0,-0.029681156073202257,-1.1179902120906335,2.0,1.0
522,2,42,1521,-1,0.95,0.5,1.0,-0.17808693643921575,-0.6233042775372557,2.0,2.0
523,2,43,1833,-1,2.3,0.0,1.0,1.1575650868549043,-1.1179902120906335,4.0,1.0
524,2,44,1921,1,0.5,2.6,1.0,-0.6233042775372557,1.4543766475869317,2.0,4.0
525,2,45,1472,-1,2.0,0.05,1.0,0.8607535261228777,-1.0685216186352957,3.0,1.0
526,2,46,3630,-1,1.1,0.2,1.0,-0.029681156073202257,-0.9201158382692824,2.0,2.0
527,2,47,2730,-1,1.25,0.35,1.0,0.118724624292811,-0.7717100579032691,3.0,2.0
528,2,48,5770,-1,2.75,2.15,1.0,1.6027824279529446,1.0091593064888915,4.0,3.0
529,2,49,2833,-1,0.05,0.2,1.0,-1.0685216186352957,-0.9201158382692824,1.0,2.0
530,2,50,1616,-1,0.65,0.0,1.0,-0.4748984971712424,-1.1179902120906335,2.0,1.0
531,2,51,1776,1,0.0,1.4,1.0,-1.1179902120906335,0.26713040465882454,1.0,3.0
532,2,52,1554,1,0.2,1.95,1.0,-0.9201158382692824,0.8112849326675403,2.0,3.0
533,2,53,2881,-1,0.0,0.0,1.0,-1.1179902120906335,-1.1179902120906335,1.0,1.0
534,2,54,2592,-1,0.65,0.0,1.0,-0.4748984971712424,-1.1179902120906335,2.0,1.0
535,2,55,1966,1,0.95,2.3,1.0,-0.17808693643921575,1.1575650868549048,2.0,4.0
536,2,56,4961,1,1.25,0.35,1.0,0.118724624292811,-0.7717100579032691,3.0,2.0
537,2,57,4289,1,0.0,0.0,1.0,-1.1179902120906335,-1.1179902120906335,1.0,1.0
538,2,58,2382,1,2.0,3.0,1.0,0.8607535261228777,1.8501253952296342,3.0,4.0
539,2,59,1627,-1,3.0,0.0,1.0,1.8501253952296335,-1.1179902120906335,4.0,1.0
540,2,60,1506,1,0.0,2.0,1.0,-1.1179902120906335,0.8607535261228781,1.0,3.0
541,2,61,3071,1,0.0,2.75,1.0,-1.1179902120906335,1.602782427952945,1.0,4.0
542,2,62,1683,1,0.5,2.9,1.0,-0.6233042775372557,1.7511882083189583,2.0,4.0
543,2,63,1869,-1,2.3,0.95,1.0,1.1575650868549043,-0.17808693643921555,4.0,2.0
544,2,64,1236,-1,0.35,0.05,1.0,-0.7717100579032691,-1.0685216186352957,2.0,1.0
545,2,65,5758,1,3.0,2.3,1.0,1.8501253952296335,1.1575650868549048,4.0,4.0
546,2,66,3641,-1,1.1,1.25,1.0,-0.029681156073202257,0.11872462429281125,2.0,3.0
547,2,67,1984,-1,0.0,0.0,1.0,-1.1179902120906335,-1.1179902120906335,1.0,1.0
548,2,68,2387,1,0.35,3.0,1.0,-0.7717100579032691,1.8501253952296342,2.0,4.0
549,2,69,1672,1,0.95,1.95,1.0,-0.17808693643921575,0.8112849326675403,2.0,3.0
550,2,70,3178,-1,0.35,1.1,1.0,-0.7717100579032691,-0.029681156073202045,2.0,2.0
551,2,71,4034,-1,1.7,1.25,1.0,0.5639419653908511,0.11872462429281125,3.0,3.0
552,2,72,2266,1,0.2,1.25,1.0,-0.9201158382692824,0.11872462429281125,2.0,3.0
553,2,73,9110,1,2.75,2.15,1.0,1.6027824279529446,1.0091593064888915,4.0,3.0
554,2,74,1914,-1,0.95,0.65,1.0,-0.17808693643921575,-0.4748984971712423,2.0,2.0
555,2,75,2310,1,2.6,2.0,1.0,1.4543766475869313,0.8607535261228781,4.0,3.0
556,2,76,3482,-1,0.35,0.5,1.0,-0.7717100579032691,-0.6233042775372557,2.0,2.0
557,2,77,2185,1,0.0,2.75,1.0,-1.1179902120906335,1.602782427952945,1.0,4.0
558,2,78,1643,1,0.5,0.65,1.0,-0.6233042775372557,-0.4748984971712423,2.0,2.0
559,2,79,6848,1,1.1,2.3,1.0,-0.029681156073202257,1.1575650868549048,2.0,4.0
560,2,80,1964,-1,1.25,2.15,2.0,0.118724624292811,1.0091593064888915,3.0,3.0
561,2,81,2323,1,2.0,0.0,2.0,0.8607535261228777,-1.1179902120906335,3.0,1.0
562,2,82,2812,1,1.25,0.2,2.0,0.118724624292811,-0.9201158382692824,3.0,2.0
563,2,83,2225,-1,0.0,0.0,2.0,-1.1179902120906335,-1.1179902120906335,1.0,1.0
564,2,84,1786,1,1.95,0.2,2.0,0.81128493266754,-0.9201158382692824,3.0,2.0
565,2,85,1676,-1,0.2,0.05,2.0,-0.9201158382692824,-1.0685216186352957,2.0,1.0
566,2,86,2207,-1,0.0,0.35,2.0,-1.1179902120906335,-0.7717100579032691,1.0,2.0
567,2,87,1493,-1,0.0,0.5,2.0,-1.1179902120906335,-0.6233042775372557,1.0,2.0
568,2,88,5068,1,2.15,0.5,2.0,1.009159306488891,-0.6233042775372557,3.0,2.0
569,2,89,3112,1,2.15,2.75,2.0,1.009159306488891,1.602782427952945,3.0,4.0
570,2,90,4139,1,0.5,1.7,2.0,-0.6233042775372557,0.5639419653908514,2.0,3.0
571,2,91,2312,1,2.9,0.5,2.0,1.7511882083189578,-0.6233042775372557,4.0,2.0
572,2,92,2852,-1,0.0,0.35,2.0,-1.1179902120906335,-0.7717100579032691,1.0,2.0
573,2,93,3026,1,2.0,2.6,2.0,0.8607535261228777,1.4543766475869317,3.0,4.0
574,2,94,3254,-1,0.65,2.3,2.0,-0.4748984971712424,1.1575650868549048,2.0,4.0
575,2,95,2383,-1,0.0,2.15,2.0,-1.1179902120906335,1.0091593064888915,1.0,3.0
576,2,96,2269,1,2.75,0.0,2.0,1.6027824279529446,-1.1179902120906335,4.0,1.0
577,2,97,1511,-1,0.05,2.75,2.0,-1.0685216186352957,1.602782427952945,1.0,4.0
578,2,98,14774,-1,1.25,1.7,2.0,0.118724624292811,0.5639419653908514,3.0,3.0
579,2,99,2133,1,2.15,0.0,2.0,1.009159306488891,-1.1179902120906335,3.0,1.0
580,2,100,3904,1,2.9,1.1,2.0,1.7511882083189578,-0.029681156073202045,4.0,2.0
581,2,101,3875,-1,0.2,0.2,2.0,-0.9201158382692824,-0.9201158382692824,2.0,2.0
582,2,102,2880,-1,0.0,0.65,2.0,-1.1179902120906335,-0.4748984971712423,1.0,2.0
583,2,103,1806,-1,0.0,0.65,2.0,-1.1179902120906335,-0.4748984971712423,1.0,2.0
584,2,104,2263,-1,0.35,2.85,2.0,-0.7717100579032691,1.7017196148636207,2.0,4.0
585,2,105,7731,1,2.6,0.5,2.0,1.4543766475869313,-0.6233042775372557,4.0,2.0
586,2,106,3051,-1,0.35,1.25,2.0,-0.7717100579032691,0.11872462429281125,2.0,3.0
587,2,107,2542,-1,0.5,2.6,2.0,-0.6233042775372557,1.4543766475869317,2.0,4.0
588,2,108,3003,1,2.3,0.95,2.0,1.1575650868549043,-0.17808693643921555,4.0,2.0
589,2,109,2876,1,2.6,2.75,2.0,1.4543766475869313,1.602782427952945,4.0,4.0
590,2,110,1992,1,1.1,0.65,2.0,-0.029681156073202257,-0.4748984971712423,2.0,2.0
591,2,111,2447,-1,0.2,1.1,2.0,-0.9201158382692824,-0.029681156073202045,2.0,2.0
592,2,112,4018,-1,0.0,2.3,2.0,-1.1179902120906335,1.1575650868549048,1.0,4.0
593,2,113,3263,1,0.35,1.25,2.0,-0.7717100579032691,0.11872462429281125,2.0,3.0
594,2,114,2281,-1,0.0,0.0,2.0,-1.1179902120906335,-1.1179902120906335,1.0,1.0
595,2,115,6951,-1,0.35,0.5,2.0,-0.7717100579032691,-0.6233042775372557,2.0,2.0
596,2,116,3526,1,1.95,0.95,2.0,0.81128493266754,-0.17808693643921555,3.0,2.0
597,2,117,2094,1,3.0,0.35,2.0,1.8501253952296335,-0.7717100579032691,4.0,2.0
598,2,118,3462,-1,2.3,2.85,2.0,1.1575650868549043,1.7017196148636207,4.0,4.0
599,2,119,1916,1,1.1,1.4,2.0,-0.029681156073202257,0.26713040465882454,2.0,3.0
600,2,120,3014,-1,1.95,0.95,1.0,0.81128493266754,-0.17808693643921555,3.0,2.0
601,2,121,1248,-1,1.95,0.2,1.0,0.81128493266754,-0.9201158382692824,3.0,2.0
602,2,122,1962,-1,2.0,0.0,1.0,0.8607535261228777,-1.1179902120906335,3.0,1.0
603,2,123,1814,1,0.35,2.85,1.0,-0.7717100579032691,1.7017196148636207,2.0,4.0
604,2,124,2794,1,0.0,0.0,1.0,-1.1179902120906335,-1.1179902120906335,1.0,1.0
605,2,125,4583,-1,0.35,0.5,1.0,-0.7717100579032691,-0.6233042775372557,2.0,2.0
606,2,126,5363,1,0.2,0.2,1.0,-0.9201158382692824,-0.9201158382692824,2.0,2.0
607,2,127,3832,1,0.35,1.25,1.0,-0.7717100579032691,0.11872462429281125,2.0,3.0
608,2,128,1041,-1,2.15,0.0,1.0,1.009159306488891,-1.1179902120906335,3.0,1.0
609,2,129,2045,1,0.05,2.75,1.0,-1.0685216186352957,1.602782427952945,1.0,4.0
610,2,130,1479,-1,2.6,0.5,1.0,1.4543766475869313,-0.6233042775372557,4.0,2.0
611,2,131,1750,-1,0.35,1.25,1.0,-0.7717100579032691,0.11872462429281125,2.0,3.0
612,2,132,2726,-1,2.9,1.1,1.0,1.7511882083189578,-0.029681156073202045,4.0,2.0
613,2,133,2387,1,0.2,0.05,1.0,-0.9201158382692824,-1.0685216186352957,2.0,1.0
614,2,134,1629,1,0.5,2.6,1.0,-0.6233042775372557,1.4543766475869317,2.0,4.0
615,2,135,3360,-1,2.75,0.0,1.0,1.6027824279529446,-1.1179902120906335,4.0,1.0
616,2,136,1625,-1,2.0,2.6,1.0,0.8607535261228777,1.4543766475869317,3.0,4.0
617,2,137,1991,1,0.0,0.65,1.0,-1.1179902120906335,-0.4748984971712423,1.0,2.0
618,2,138,5695,1,0.0,0.0,1.0,-1.1179902120906335,-1.1179902120906335,1.0,1.0
619,2,139,1470,1,0.2,1.1,1.0,-0.9201158382692824,-0.029681156073202045,2.0,2.0
620,2,140,1108,1,0.0,2.3,1.0,-1.1179902120906335,1.1575650868549048,1.0,4.0
621,2,141,1263,1,0.0,0.5,1.0,-1.1179902120906335,-0.6233042775372557,1.0,2.0
622,2,142,1223,1,0.65,2.3,1.0,-0.4748984971712424,1.1575650868549048,2.0,4.0
623,2,143,944,1,0.0,2.15,1.0,-1.1179902120906335,1.0091593064888915,1.0,3.0
624,2,144,966,-1,3.0,0.35,1.0,1.8501253952296335,-0.7717100579032691,4.0,2.0
625,2,145,1471,-1,2.9,0.5,1.0,1.7511882083189578,-0.6233042775372557,4.0,2.0
626,2,146,1325,-1,2.3,0.95,1.0,1.1575650868549043,-0.17808693643921555,4.0,2.0
627,2,147,2047,-1,0.5,1.7,1.0,-0.6233042775372557,0.5639419653908514,2.0,3.0
628,2,148,1318,1,0.0,0.65,1.0,-1.1179902120906335,-0.4748984971712423,1.0,2.0
629,2,149,1410,-1,2.6,2.75,1.0,1.4543766475869313,1.602782427952945,4.0,4.0
630,2,150,1109,-1,1.1,0.65,1.0,-0.029681156073202257,-0.4748984971712423,2.0,2.0
631,2,151,2158,1,0.0,0.35,1.0,-1.1179902120906335,-0.7717100579032691,1.0,2.0
632,2,152,3687,-1,1.25,1.7,1.0,0.118724624292811,0.5639419653908514,3.0,3.0
633,2,153,2117,-1,1.1,1.4,1.0,-0.029681156073202257,0.26713040465882454,2.0,3.0
634,2,154,1499,-1,2.15,2.75,1.0,1.009159306488891,1.602782427952945,3.0,4.0
635,2,155,871,1,1.25,2.15,1.0,0.118724624292811,1.0091593064888915,3.0,3.0
636,2,156,1230,-1,2.15,0.5,1.0,1.009159306488891,-0.6233042775372557,3.0,2.0
637,2,157,1466,-1,1.25,0.2,1.0,0.118724624292811,-0.9201158382692824,3.0,2.0
638,2,158,1764,1,2.3,2.85,1.0,1.1575650868549043,1.7017196148636207,4.0,4.0
639,2,159,2222,1,0.0,0.35,1.0,-1.1179902120906335,-0.7717100579032691,1.0,2.0
640,2,160,4374,-1,1.25,1.1,2.0,0.118724624292811,-0.029681156073202045,3.0,2.0
641,2,161,1255,1,0.0,3.0,2.0,-1.1179902120906335,1.8501253952296342,1.0,4.0
642,2,162,2214,1,0.5,0.0,2.0,-0.6233042775372557,-1.1179902120906335,2.0,1.0
643,2,163,1485,1,2.75,0.05,2.0,1.6027824279529446,-1.0685216186352957,4.0,1.0
644,2,164,1662,1,0.35,0.0,2.0,-0.7717100579032691,-1.1179902120906335,2.0,1.0
645,2,165,1511,-1,0.5,2.15,2.0,-0.6233042775372557,1.0091593064888915,2.0,3.0
646,2,166,2811,-1,2.15,2.75,2.0,1.009159306488891,1.602782427952945,3.0,4.0
647,2,167,2105,1,2.75,0.0,2.0,1.6027824279529446,-1.1179902120906335,4.0,1.0
648,2,168,1197,-1,0.0,2.15,2.0,-1.1179902120906335,1.0091593064888915,1.0,3.0
649,2,169,1095,-1,0.0,1.1,2.0,-1.1179902120906335,-0.029681156073202045,1.0,2.0
650,2,170,2910,-1,1.7,0.5,2.0,0.5639419653908511,-0.6233042775372557,3.0,2.0
651,2,171,430,-1,0.0,0.95,2.0,-1.1179902120906335,-0.17808693643921555,1.0,2.0
652,2,172,2373,1,2.3,0.0,2.0,1.1575650868549043,-1.1179902120906335,4.0,1.0
653,2,173,1275,-1,1.1,2.9,2.0,-0.029681156073202257,1.7511882083189583,2.0,4.0
654,2,174,2077,-1,0.65,0.95,2.0,-0.4748984971712424,-0.17808693643921555,2.0,2.0
655,2,175,4286,1,2.3,1.1,2.0,1.1575650868549043,-0.029681156073202045,4.0,2.0
656,2,176,3626,-1,2.3,3.0,2.0,1.1575650868549043,1.8501253952296342,4.0,4.0
657,2,177,2098,-1,2.75,2.6,2.0,1.6027824279529446,1.4543766475869317,4.0,4.0
658,2,178,2018,-1,0.5,0.35,2.0,-0.6233042775372557,-0.7717100579032691,2.0,2.0
659,2,179,2155,-1,1.1,0.35,2.0,-0.029681156073202257,-0.7717100579032691,2.0,2.0
660,2,180,1312,-1,0.0,2.3,2.0,-1.1179902120906335,1.1575650868549048,1.0,4.0
661,2,181,2025,-1,0.0,0.0,2.0,-1.1179902120906335,-1.1179902120906335,1.0,1.0
662,2,182,2711,-1,0.35,0.0,2.0,-0.7717100579032691,-1.1179902120906335,2.0,1.0
663,2,183,1879,1,0.05,0.35,2.0,-1.0685216186352957,-0.7717100579032691,1.0,2.0
664,2,184,2481,1,2.3,0.65,2.0,1.1575650868549043,-0.4748984971712423,4.0,2.0
665,2,185,1066,-1,1.4,1.1,2.0,0.26713040465882426,-0.029681156073202045,3.0,2.0
666,2,186,1863,1,3.0,2.0,2.0,1.8501253952296335,0.8607535261228781,4.0,3.0
667,2,187,6252,-1,0.5,0.35,2.0,-0.6233042775372557,-0.7717100579032691,2.0,2.0
668,2,188,1516,1,0.65,0.5,2.0,-0.4748984971712424,-0.6233042775372557,2.0,2.0
669,2,189,1693,-1,0.05,2.0,2.0,-1.0685216186352957,0.8607535261228781,1.0,3.0
670,2,190,1415,1,2.6,0.5,2.0,1.4543766475869313,-0.6233042775372557,4.0,2.0
671,2,191,1477,1,2.15,0.0,2.0,1.009159306488891,-1.1179902120906335,3.0,1.0
672,2,192,1115,-1,0.65,1.1,2.0,-0.4748984971712424,-0.029681156073202045,2.0,2.0
673,2,193,2117,-1,0.95,2.3,2.0,-0.17808693643921575,1.1575650868549048,2.0,4.0
674,2,194,3668,1,1.4,0.0,2.0,0.26713040465882426,-1.1179902120906335,3.0,1.0
675,2,195,1212,1,2.15,1.25,2.0,1.009159306488891,0.11872462429281125,3.0,3.0
676,2,196,1658,1,2.85,0.35,2.0,1.7017196148636202,-0.7717100579032691,4.0,2.0
677,2,197,1081,-1,0.5,0.95,2.0,-0.6233042775372557,-0.17808693643921555,2.0,2.0
678,2,198,1605,1,0.2,0.2,2.0,-0.9201158382692824,-0.9201158382692824,2.0,2.0
679,2,199,2735,1,2.85,2.3,2.0,1.7017196148636202,1.1575650868549048,4.0,4.0
680,2,200,1351,-1,0.35,0.0,1.0,-0.7717100579032691,-1.1179902120906335,2.0,1.0
681,2,201,1418,1,0.5,0.95,1.0,-0.6233042775372557,-0.17808693643921555,2.0,2.0
682,2,202,1152,1,0.0,1.1,1.0,-1.1179902120906335,-0.029681156073202045,1.0,2.0
683,2,203,2764,1,1.25,1.1,1.0,0.118724624292811,-0.029681156073202045,3.0,2.0
684,2,204,2555,1,2.75,2.6,1.0,1.6027824279529446,1.4543766475869317,4.0,4.0
685,2,205,1966,1,0.0,3.0,1.0,-1.1179902120906335,1.8501253952296342,1.0,4.0
686,2,206,1839,1,0.65,1.1,1.0,-0.4748984971712424,-0.029681156073202045,2.0,2.0
687,2,207,1619,-1,2.15,1.25,1.0,1.009159306488891,0.11872462429281125,3.0,3.0
688,2,208,4705,1,2.3,3.0,1.0,1.1575650868549043,1.8501253952296342,4.0,4.0
689,2,209,1404,-1,0.65,0.5,1.0,-0.4748984971712424,-0.6233042775372557,2.0,2.0
690,2,210,2197,-1,2.3,0.0,1.0,1.1575650868549043,-1.1179902120906335,4.0,1.0
691,2,211,2248,-1,2.85,2.3,1.0,1.7017196148636202,1.1575650868549048,4.0,4.0
692,2,212,2783,-1,2.3,1.1,1.0,1.1575650868549043,-0.029681156073202045,4.0,2.0
693,2,213,1276,1,0.5,0.35,1.0,-0.6233042775372557,-0.7717100579032691,2.0,2.0
694,2,214,1925,-1,0.35,0.0,1.0,-0.7717100579032691,-1.1179902120906335,2.0,1.0
695,2,215,1836,-1,3.0,2.0,1.0,1.8501253952296335,0.8607535261228781,4.0,3.0
696,2,216,2134,-1,2.3,0.65,1.0,1.1575650868549043,-0.4748984971712423,4.0,2.0
697,2,217,1352,1,0.0,2.15,1.0,-1.1179902120906335,1.0091593064888915,1.0,3.0
698,2,218,1285,-1,2.85,0.35,1.0,1.7017196148636202,-0.7717100579032691,4.0,2.0
699,2,219,1344,1,0.0,0.95,1.0,-1.1179902120906335,-0.17808693643921555,1.0,2.0
700,2,220,1834,1,1.7,0.5,1.0,0.5639419653908511,-0.6233042775372557,3.0,2.0
701,2,221,2169,1,1.1,0.35,1.0,-0.029681156073202257,-0.7717100579032691,2.0,2.0
702,2,222,1192,-1,2.15,0.0,1.0,1.009159306488891,-1.1179902120906335,3.0,1.0
703,2,223,1448,1,1.1,2.9,1.0,-0.029681156073202257,1.7511882083189583,2.0,4.0
704,2,224,1618,1,0.05,2.0,1.0,-1.0685216186352957,0.8607535261228781,1.0,3.0
705,2,225,2337,-1,0.2,0.2,1.0,-0.9201158382692824,-0.9201158382692824,2.0,2.0
706,2,226,1817,-1,2.75,0.0,1.0,1.6027824279529446,-1.1179902120906335,4.0,1.0
707,2,227,953,-1,2.75,0.05,1.0,1.6027824279529446,-1.0685216186352957,4.0,1.0
708,2,228,1666,1,0.65,0.95,1.0,-0.4748984971712424,-0.17808693643921555,2.0,2.0
709,2,229,1120,-1,2.6,0.5,1.0,1.4543766475869313,-0.6233042775372557,4.0,2.0
710,2,230,1819,1,0.95,2.3,1.0,-0.17808693643921575,1.1575650868549048,2.0,4.0
711,2,231,1672,1,1.4,1.1,1.0,0.26713040465882426,-0.029681156073202045,3.0,2.0
712,2,232,4290,-1,0.5,0.0,1.0,-0.6233042775372557,-1.1179902120906335,2.0,1.0
713,2,233,1477,1,2.15,2.75,1.0,1.009159306488891,1.602782427952945,3.0,4.0
714,2,234,1372,1,0.0,2.3,1.0,-1.1179902120906335,1.1575650868549048,1.0,4.0
715,2,235,1507,1,0.5,2.15,1.0,-0.6233042775372557,1.0091593064888915,2.0,3.0
716,2,236,2567,-1,1.4,0.0,1.0,0.26713040465882426,-1.1179902120906335,3.0,1.0
717,2,237,1513,1,0.0,0.0,1.0,-1.1179902120906335,-1.1179902120906335,1.0,1.0
718,2,238,1648,1,0.05,0.35,1.0,-1.0685216186352957,-0.7717100579032691,1.0,2.0
719,2,239,1125,1,0.5,0.35,1.0,-0.6233042775372557,-0.7717100579032691,2.0,2.0
720,3,0,4777,-1,0.0,0.95,2.0,-1.2619735879065432,0.2636360517683868,0.0,3.0
721,3,1,7090,-1,0.05,0.95,2.0,-1.1816783437131257,0.2636360517683868,1.0,3.0
722,3,2,4338,1,1.55,0.05,2.0,1.227178982089394,-1.181678343713125,4.0,1.0
723,3,3,11097,-1,1.1,0.95,2.0,0.504521784348638,0.2636360517683868,3.0,3.0
724,3,4,5289,-1,0.95,1.1,2.0,0.26363605176838584,0.504521784348639,3.0,3.0
725,3,5,3754,1,1.1,0.5,2.0,0.504521784348638,-0.45902114597236915,3.0,2.0
726,3,6,3146,-1,0.35,1.1,2.0,-0.699906878552622,0.504521784348639,1.0,3.0
727,3,7,2635,1,1.7,1.4,2.0,1.4680647146696457,0.9862932495091427,5.0,4.0
728,3,8,3422,-1,0.0,0.5,2.0,-1.2619735879065432,-0.45902114597236915,0.0,2.0
729,3,9,9677,1,2.45,1.1,2.0,2.6724933775709054,0.504521784348639,5.0,3.0
730,3,10,2342,-1,0.0,0.05,2.0,-1.2619735879065432,-1.181678343713125,0.0,1.0
731,3,11,2643,1,1.25,0.5,2.0,0.7454075169288898,-0.45902114597236915,4.0,2.0
732,3,12,2593,-1,0.95,1.55,2.0,0.26363605176838584,1.227178982089395,3.0,4.0
733,3,13,2975,-1,0.0,0.05,2.0,-1.2619735879065432,-1.181678343713125,0.0,1.0
734,3,14,3094,-1,0.95,1.1,2.0,0.26363605176838584,0.504521784348639,3.0,3.0
735,3,15,2419,1,0.65,0.0,2.0,-0.21813541339211798,-1.2619735879065426,2.0,0.0
736,3,16,9847,1,1.4,0.95,2.0,0.9862932495091417,0.2636360517683868,4.0,3.0
737,3,17,2667,1,0.95,0.05,2.0,0.26363605176838584,-1.181678343713125,3.0,1.0
738,3,18,2451,1,0.65,0.0,2.0,-0.21813541339211798,-1.2619735879065426,2.0,0.0
739,3,19,1832,-1,0.0,0.05,2.0,-1.2619735879065432,-1.181678343713125,0.0,1.0
740,3,20,4519,-1,0.05,0.95,2.0,-1.1816783437131257,0.2636360517683868,1.0,3.0
741,3,21,2357,-1,0.05,1.1,2.0,-1.1816783437131257,0.504521784348639,1.0,3.0
742,3,22,2320,-1,0.35,0.8,2.0,-0.699906878552622,0.0227503191881349,1.0,3.0
743,3,23,3029,-1,0.35,1.55,2.0,-0.699906878552622,1.227178982089395,1.0,4.0
744,3,24,3476,-1,0.65,1.7,2.0,-0.21813541339211798,1.4680647146696468,2.0,5.0
745,3,25,2531,1,0.95,0.0,2.0,0.26363605176838584,-1.2619735879065426,3.0,0.0
746,3,26,4449,-1,0.8,0.95,2.0,0.022750319188134006,0.2636360517683868,3.0,3.0
747,3,27,2778,1,1.4,0.0,2.0,0.9862932495091417,-1.2619735879065426,4.0,0.0
748,3,28,3198,1,1.25,0.0,2.0,0.7454075169288898,-1.2619735879065426,4.0,0.0
749,3,29,2604,1,0.95,0.0,2.0,0.26363605176838584,-1.2619735879065426,3.0,0.0
750,3,30,1736,-1,0.0,1.55,2.0,-1.2619735879065432,1.227178982089395,0.0,4.0
751,3,31,1528,-1,0.0,1.1,2.0,-1.2619735879065432,0.504521784348639,0.0,3.0
752,3,32,7987,-1,0.0,0.0,2.0,-1.2619735879065432,-1.2619735879065426,0.0,0.0
753,3,33,1808,-1,0.05,0.65,2.0,-1.1816783437131257,-0.21813541339211714,1.0,2.0
754,3,34,7586,1,0.95,0.95,2.0,0.26363605176838584,0.2636360517683868,3.0,3.0
755,3,35,2152,1,0.95,0.0,2.0,0.26363605176838584,-1.2619735879065426,3.0,0.0
756,3,36,5162,1,0.95,1.25,2.0,0.26363605176838584,0.7454075169288908,3.0,4.0
757,3,37,4705,1,0.95,0.05,2.0,0.26363605176838584,-1.181678343713125,3.0,1.0
758,3,38,8093,-1,0.95,2.3,2.0,0.26363605176838584,2.4316076449906547,3.0,5.0
759,3,39,8516,-1,0.35,0.8,2.0,-0.699906878552622,0.0227503191881349,1.0,3.0
760,3,40,3916,-1,0.0,0.0,1.0,-1.2619735879065432,-1.2619735879065426,0.0,0.0
761,3,41,2427,-1,2.45,0.65,1.0,2.6724933775709054,-0.21813541339211714,5.0,2.0
762,3,42,3746,1,0.05,0.35,1.0,-1.1816783437131257,-0.6999068785526212,1.0,1.0
763,3,43,3621,-1,1.1,0.35,1.0,0.504521784348638,-0.6999068785526212,3.0,1.0
764,3,44,2167,1,1.55,0.95,1.0,1.227178982089394,0.2636360517683868,4.0,3.0
765,3,45,2378,-1,2.45,1.55,1.0,2.6724933775709054,1.227178982089395,5.0,4.0
766,3,46,3483,-1,1.1,0.65,1.0,0.504521784348638,-0.21813541339211714,3.0,2.0
767,3,47,2759,1,0.0,0.95,1.0,-1.2619735879065432,0.2636360517683868,0.0,3.0
768,3,48,11236,1,0.05,0.65,1.0,-1.1816783437131257,-0.21813541339211714,1.0,2.0
769,3,49,2620,1,0.05,0.95,1.0,-1.1816783437131257,0.2636360517683868,1.0,3.0
770,3,50,5035,-1,0.95,1.1,1.0,0.26363605176838584,0.504521784348639,3.0,3.0
771,3,51,6939,-1,1.4,1.25,1.0,0.9862932495091417,0.7454075169288908,4.0,4.0
772,3,52,2210,1,0.0,0.95,1.0,-1.2619735879065432,0.2636360517683868,0.0,3.0
773,3,53,1773,1,0.05,1.4,1.0,-1.1816783437131257,0.9862932495091427,1.0,4.0
774,3,54,1790,1,0.0,0.65,1.0,-1.2619735879065432,-0.21813541339211714,0.0,2.0
775,3,55,4010,1,1.55,0.2,1.0,1.227178982089394,-0.9407926111328733,4.0,1.0
776,3,56,2599,1,0.0,1.25,1.0,-1.2619735879065432,0.7454075169288908,0.0,4.0
777,3,57,8879,-1,2.45,0.65,1.0,2.6724933775709054,-0.21813541339211714,5.0,2.0
778,3,58,2397,-1,1.4,0.65,1.0,0.9862932495091417,-0.21813541339211714,4.0,2.0
779,3,59,2316,-1,0.65,0.05,1.0,-0.21813541339211798,-1.181678343713125,2.0,1.0
780,3,60,1897,-1,1.7,0.65,1.0,1.4680647146696457,-0.21813541339211714,5.0,2.0
781,3,61,7320,1,0.5,0.65,1.0,-0.45902114597237,-0.21813541339211714,2.0,2.0
782,3,62,3510,-1,0.05,0.0,1.0,-1.1816783437131257,-1.2619735879065426,1.0,0.0
783,3,63,2683,1,0.05,1.55,1.0,-1.1816783437131257,1.227178982089395,1.0,4.0
784,3,64,1943,1,0.05,0.65,1.0,-1.1816783437131257,-0.21813541339211714,1.0,2.0
785,3,65,1684,-1,0.65,0.2,1.0,-0.21813541339211798,-0.9407926111328733,2.0,1.0
786,3,66,3811,1,0.95,1.4,1.0,0.26363605176838584,0.9862932495091427,3.0,4.0
787,3,67,1739,1,0.5,1.25,1.0,-0.45902114597237,0.7454075169288908,2.0,4.0
788,3,68,2891,-1,0.8,0.35,1.0,0.022750319188134006,-0.6999068785526212,3.0,1.0
789,3,69,4217,1,0.65,2.3,1.0,-0.21813541339211798,2.4316076449906547,2.0,5.0
790,3,70,6103,1,0.95,0.95,1.0,0.26363605176838584,0.2636360517683868,3.0,3.0
791,3,71,5579,-1,0.8,0.8,1.0,0.022750319188134006,0.0227503191881349,3.0,3.0
792,3,72,4646,1,0.8,0.35,1.0,0.022750319188134006,-0.6999068785526212,3.0,1.0
793,3,73,4253,1,0.05,0.95,1.0,-1.1816783437131257,0.2636360517683868,1.0,3.0
794,3,74,2616,1,1.25,0.95,1.0,0.7454075169288898,0.2636360517683868,4.0,3.0
795,3,75,5075,-1,0.95,0.8,1.0,0.26363605176838584,0.0227503191881349,3.0,3.0
796,3,76,2093,-1,0.65,0.8,1.0,-0.21813541339211798,0.0227503191881349,2.0,3.0
797,3,77,4899,1,1.1,1.55,1.0,0.504521784348638,1.227178982089395,3.0,4.0
798,3,78,4563,1,1.1,0.95,1.0,0.504521784348638,0.2636360517683868,3.0,3.0
799,3,79,2354,-1,0.95,0.0,1.0,0.26363605176838584,-1.2619735879065426,3.0,0.0
800,3,80,8523,1,1.55,1.1,2.0,1.227178982089394,0.504521784348639,4.0,3.0
801,3,81,2491,1,0.95,0.05,2.0,0.26363605176838584,-1.181678343713125,3.0,1.0
802,3,82,2304,-1,0.0,0.65,2.0,-1.2619735879065432,-0.21813541339211714,0.0,2.0
803,3,83,2587,1,1.4,0.05,2.0,0.9862932495091417,-1.181678343713125,4.0,1.0
804,3,84,2710,1,2.3,0.65,2.0,2.431607644990653,-0.21813541339211714,5.0,2.0
805,3,85,4325,1,0.65,0.05,2.0,-0.21813541339211798,-1.181678343713125,2.0,1.0
806,3,86,2295,1,0.65,0.05,2.0,-0.21813541339211798,-1.181678343713125,2.0,1.0
807,3,87,2445,-1,0.8,0.65,2.0,0.022750319188134006,-0.21813541339211714,3.0,2.0
808,3,88,3839,1,1.55,0.95,2.0,1.227178982089394,0.2636360517683868,4.0,3.0
809,3,89,2748,1,1.55,0.35,2.0,1.227178982089394,-0.6999068785526212,4.0,1.0
810,3,90,2838,1,0.65,0.5,2.0,-0.21813541339211798,-0.45902114597236915,2.0,2.0
811,3,91,5352,1,1.55,2.45,2.0,1.227178982089394,2.672493377570907,4.0,5.0
812,3,92,3472,-1,0.65,1.4,2.0,-0.21813541339211798,0.9862932495091427,2.0,4.0
813,3,93,1811,-1,0.8,0.8,2.0,0.022750319188134006,0.0227503191881349,3.0,3.0
814,3,94,3039,1,0.5,0.0,2.0,-0.45902114597237,-1.2619735879065426,2.0,0.0
815,3,95,2841,1,0.35,0.05,2.0,-0.699906878552622,-1.181678343713125,1.0,1.0
816,3,96,11103,1,0.8,0.35,2.0,0.022750319188134006,-0.6999068785526212,3.0,1.0
817,3,97,1573,-1,0.65,2.45,2.0,-0.21813541339211798,2.672493377570907,2.0,5.0
818,3,98,1916,1,1.55,0.0,2.0,1.227178982089394,-1.2619735879065426,4.0,0.0
819,3,99,3020,1,0.05,0.0,2.0,-1.1816783437131257,-1.2619735879065426,1.0,0.0
820,3,100,3972,1,2.3,0.95,2.0,2.431607644990653,0.2636360517683868,5.0,3.0
821,3,101,3019,-1,0.8,0.95,2.0,0.022750319188134006,0.2636360517683868,3.0,3.0
822,3,102,6740,1,0.5,1.1,2.0,-0.45902114597237,0.504521784348639,2.0,3.0
823,3,103,2329,1,0.95,0.8,2.0,0.26363605176838584,0.0227503191881349,3.0,3.0
824,3,104,4697,-1,1.1,2.45,2.0,0.504521784348638,2.672493377570907,3.0,5.0
825,3,105,6004,-1,0.35,0.8,2.0,-0.699906878552622,0.0227503191881349,1.0,3.0
826,3,106,2018,1,1.1,0.0,2.0,0.504521784348638,-1.2619735879065426,3.0,0.0
827,3,107,2470,1,0.2,1.55,2.0,-0.9407926111328738,1.227178982089395,1.0,4.0
828,3,108,2635,1,1.25,1.4,2.0,0.7454075169288898,0.9862932495091427,4.0,4.0
829,3,109,1999,1,1.1,0.05,2.0,0.504521784348638,-1.181678343713125,3.0,1.0
830,3,110,3486,-1,0.65,1.1,2.0,-0.21813541339211798,0.504521784348639,2.0,3.0
831,3,111,1772,1,1.1,0.95,2.0,0.504521784348638,0.2636360517683868,3.0,3.0
832,3,112,3926,1,0.95,0.05,2.0,0.26363605176838584,-1.181678343713125,3.0,1.0
833,3,113,2001,-1,0.0,0.95,2.0,-1.2619735879065432,0.2636360517683868,0.0,3.0
834,3,114,2195,-1,1.4,1.7,2.0,0.9862932495091417,1.4680647146696468,4.0,5.0
835,3,115,2002,-1,0.0,1.4,2.0,-1.2619735879065432,0.9862932495091427,0.0,4.0
836,3,116,1932,1,0.05,0.0,2.0,-1.1816783437131257,-1.2619735879065426,1.0,0.0
837,3,117,2868,1,0.65,2.45,2.0,-0.21813541339211798,2.672493377570907,2.0,5.0
838,3,118,2314,-1,0.2,0.65,2.0,-0.9407926111328738,-0.21813541339211714,1.0,2.0
839,3,119,2149,1,0.95,1.55,2.0,0.26363605176838584,1.227178982089395,3.0,4.0
840,3,120,3952,1,0.0,0.05,1.0,-1.2619735879065432,-1.181678343713125,0.0,1.0
841,3,121,1354,-1,1.25,0.5,1.0,0.7454075169288898,-0.45902114597236915,4.0,2.0
842,3,122,1708,1,0.95,1.1,1.0,0.26363605176838584,0.504521784348639,3.0,3.0
843,3,123,1662,-1,0.95,1.25,1.0,0.26363605176838584,0.7454075169288908,3.0,4.0
844,3,124,3300,-1,1.4,0.95,1.0,0.9862932495091417,0.2636360517683868,4.0,3.0
845,3,125,2187,1,0.35,1.55,1.0,-0.699906878552622,1.227178982089395,1.0,4.0
846,3,126,1537,-1,0.95,0.0,1.0,0.26363605176838584,-1.2619735879065426,3.0,0.0
847,3,127,4601,1,0.05,0.95,1.0,-1.1816783437131257,0.2636360517683868,1.0,3.0
848,3,128,1768,-1,0.0,0.05,1.0,-1.2619735879065432,-1.181678343713125,0.0,1.0
849,3,129,2069,-1,1.7,1.4,1.0,1.4680647146696457,0.9862932495091427,5.0,4.0
850,3,130,3884,1,0.0,0.0,1.0,-1.2619735879065432,-1.2619735879065426,0.0,0.0
851,3,131,1877,1,0.05,1.1,1.0,-1.1816783437131257,0.504521784348639,1.0,3.0
852,3,132,1563,-1,1.4,0.0,1.0,0.9862932495091417,-1.2619735879065426,4.0,0.0
853,3,133,1706,1,0.0,1.1,1.0,-1.2619735879065432,0.504521784348639,0.0,3.0
854,3,134,4268,-1,0.95,0.95,1.0,0.26363605176838584,0.2636360517683868,3.0,3.0
855,3,135,1762,1,0.65,1.7,1.0,-0.21813541339211798,1.4680647146696468,2.0,5.0
856,3,136,1773,1,0.35,1.1,1.0,-0.699906878552622,0.504521784348639,1.0,3.0
857,3,137,7000,-1,0.95,0.05,1.0,0.26363605176838584,-1.181678343713125,3.0,1.0
858,3,138,3982,-1,0.65,0.0,1.0,-0.21813541339211798,-1.2619735879065426,2.0,0.0
859,3,139,1869,-1,0.95,0.0,1.0,0.26363605176838584,-1.2619735879065426,3.0,0.0
860,3,140,2105,-1,0.95,0.0,1.0,0.26363605176838584,-1.2619735879065426,3.0,0.0
861,3,141,1507,-1,0.95,0.05,1.0,0.26363605176838584,-1.181678343713125,3.0,1.0
862,3,142,2742,1,0.35,0.8,1.0,-0.699906878552622,0.0227503191881349,1.0,3.0
863,3,143,2430,1,0.05,0.65,1.0,-1.1816783437131257,-0.21813541339211714,1.0,2.0
864,3,144,2550,1,0.0,0.5,1.0,-1.2619735879065432,-0.45902114597236915,0.0,2.0
865,3,145,2499,1,1.1,0.5,1.0,0.504521784348638,-0.45902114597236915,3.0,2.0
866,3,146,3249,-1,0.95,1.1,1.0,0.26363605176838584,0.504521784348639,3.0,3.0
867,3,147,2161,1,0.0,1.55,1.0,-1.2619735879065432,1.227178982089395,0.0,4.0
868,3,148,2270,1,0.8,0.95,1.0,0.022750319188134006,0.2636360517683868,3.0,3.0
869,3,149,2322,-1,0.65,0.0,1.0,-0.21813541339211798,-1.2619735879065426,2.0,0.0
870,3,150,1885,1,0.0,0.05,1.0,-1.2619735879065432,-1.181678343713125,0.0,1.0
871,3,151,2328,1,0.05,0.95,1.0,-1.1816783437131257,0.2636360517683868,1.0,3.0
872,3,152,1789,1,0.0,0.95,1.0,-1.2619735879065432,0.2636360517683868,0.0,3.0
873,3,153,3082,1,1.1,0.95,1.0,0.504521784348638,0.2636360517683868,3.0,3.0
874,3,154,2710,1,0.95,2.3,1.0,0.26363605176838584,2.4316076449906547,3.0,5.0
875,3,155,3318,-1,2.45,1.1,1.0,2.6724933775709054,0.504521784348639,5.0,3.0
876,3,156,1596,-1,1.55,0.05,1.0,1.227178982089394,-1.181678343713125,4.0,1.0
877,3,157,2020,1,0.95,1.55,1.0,0.26363605176838584,1.227178982089395,3.0,4.0
878,3,158,1498,-1,1.25,0.0,1.0,0.7454075169288898,-1.2619735879065426,4.0,0.0
879,3,159,3854,1,0.35,0.8,1.0,-0.699906878552622,0.0227503191881349,1.0,3.0
880,3,160,4482,1,0.05,0.65,2.0,-1.1816783437131257,-0.21813541339211714,1.0,2.0
881,3,161,2049,1,0.65,0.8,2.0,-0.21813541339211798,0.0227503191881349,2.0,3.0
882,3,162,2621,-1,1.1,0.65,2.0,0.504521784348638,-0.21813541339211714,3.0,2.0
883,3,163,3313,-1,1.1,0.95,2.0,0.504521784348638,0.2636360517683868,3.0,3.0
884,3,164,1616,-1,1.55,0.95,2.0,1.227178982089394,0.2636360517683868,4.0,3.0
885,3,165,1869,1,2.45,0.65,2.0,2.6724933775709054,-0.21813541339211714,5.0,2.0
886,3,166,4355,1,0.8,0.35,2.0,0.022750319188134006,-0.6999068785526212,3.0,1.0
887,3,167,1976,-1,0.05,0.95,2.0,-1.1816783437131257,0.2636360517683868,1.0,3.0
888,3,168,1653,-1,0.05,0.95,2.0,-1.1816783437131257,0.2636360517683868,1.0,3.0
889,3,169,2198,-1,0.5,1.25,2.0,-0.45902114597237,0.7454075169288908,2.0,4.0
890,3,170,1692,1,0.8,0.35,2.0,0.022750319188134006,-0.6999068785526212,3.0,1.0
891,3,171,1836,-1,0.0,0.95,2.0,-1.2619735879065432,0.2636360517683868,0.0,3.0
892,3,172,1472,1,0.8,0.8,2.0,0.022750319188134006,0.0227503191881349,3.0,3.0
893,3,173,4448,1,2.45,0.65,2.0,2.6724933775709054,-0.21813541339211714,5.0,2.0
894,3,174,1249,-1,0.05,1.55,2.0,-1.1816783437131257,1.227178982089395,1.0,4.0
895,3,175,5278,-1,0.5,0.65,2.0,-0.45902114597237,-0.21813541339211714,2.0,2.0
896,3,176,2021,-1,0.0,0.95,2.0,-1.2619735879065432,0.2636360517683868,0.0,3.0
897,3,177,7385,1,0.95,0.8,2.0,0.26363605176838584,0.0227503191881349,3.0,3.0
898,3,178,2576,-1,1.25,0.95,2.0,0.7454075169288898,0.2636360517683868,4.0,3.0
899,3,179,1866,1,0.65,0.05,2.0,-0.21813541339211798,-1.181678343713125,2.0,1.0
900,3,180,4400,1,0.95,1.1,2.0,0.26363605176838584,0.504521784348639,3.0,3.0
901,3,181,1694,1,0.05,0.0,2.0,-1.1816783437131257,-1.2619735879065426,1.0,0.0
902,3,182,2222,1,2.45,1.55,2.0,2.6724933775709054,1.227178982089395,5.0,4.0
903,3,183,1475,-1,0.05,1.4,2.0,-1.1816783437131257,0.9862932495091427,1.0,4.0
904,3,184,4503,-1,1.1,1.55,2.0,0.504521784348638,1.227178982089395,3.0,4.0
905,3,185,1636,1,0.65,0.2,2.0,-0.21813541339211798,-0.9407926111328733,2.0,1.0
906,3,186,1509,-1,0.0,0.65,2.0,-1.2619735879065432,-0.21813541339211714,0.0,2.0
907,3,187,1361,-1,1.55,0.2,2.0,1.227178982089394,-0.9407926111328733,4.0,1.0
908,3,188,1715,-1,0.05,0.35,2.0,-1.1816783437131257,-0.6999068785526212,1.0,1.0
909,3,189,2088,1,1.4,0.65,2.0,0.9862932495091417,-0.21813541339211714,4.0,2.0
910,3,190,1992,1,1.1,0.35,2.0,0.504521784348638,-0.6999068785526212,3.0,1.0
911,3,191,2412,1,1.7,0.65,2.0,1.4680647146696457,-0.21813541339211714,5.0,2.0
912,3,192,2200,1,0.95,0.0,2.0,0.26363605176838584,-1.2619735879065426,3.0,0.0
913,3,193,3664,-1,0.65,2.3,2.0,-0.21813541339211798,2.4316076449906547,2.0,5.0
914,3,194,9602,1,1.4,1.25,2.0,0.9862932495091417,0.7454075169288908,4.0,4.0
915,3,195,2676,-1,0.95,1.4,2.0,0.26363605176838584,0.9862932495091427,3.0,4.0
916,3,196,1788,1,0.0,0.0,2.0,-1.2619735879065432,-1.2619735879065426,0.0,0.0
917,3,197,1656,-1,0.0,1.25,2.0,-1.2619735879065432,0.7454075169288908,0.0,4.0
918,3,198,1366,-1,0.05,0.65,2.0,-1.1816783437131257,-0.21813541339211714,1.0,2.0
919,3,199,3515,-1,0.95,0.95,2.0,0.26363605176838584,0.2636360517683868,3.0,3.0
920,3,200,3897,-1,0.95,0.8,1.0,0.26363605176838584,0.0227503191881349,3.0,3.0
921,3,201,1515,-1,0.95,1.55,1.0,0.26363605176838584,1.227178982089395,3.0,4.0
922,3,202,2095,1,0.8,0.65,1.0,0.022750319188134006,-0.21813541339211714,3.0,2.0
923,3,203,1847,-1,1.55,0.95,1.0,1.227178982089394,0.2636360517683868,4.0,3.0
924,3,204,3787,1,0.65,0.5,1.0,-0.21813541339211798,-0.45902114597236915,2.0,2.0
925,3,205,3488,-1,1.55,1.1,1.0,1.227178982089394,0.504521784348639,4.0,3.0
926,3,206,4082,1,0.8,0.95,1.0,0.022750319188134006,0.2636360517683868,3.0,3.0
927,3,207,2037,1,0.2,0.65,1.0,-0.9407926111328738,-0.21813541339211714,1.0,2.0
928,3,208,1874,1,0.8,0.8,1.0,0.022750319188134006,0.0227503191881349,3.0,3.0
929,3,209,1663,1,0.0,1.4,1.0,-1.2619735879065432,0.9862932495091427,0.0,4.0
930,3,210,5986,-1,0.8,0.35,1.0,0.022750319188134006,-0.6999068785526212,3.0,1.0
931,3,211,7087,1,1.25,1.4,1.0,0.7454075169288898,0.9862932495091427,4.0,4.0
932,3,212,1695,1,0.0,0.65,1.0,-1.2619735879065432,-0.21813541339211714,0.0,2.0
933,3,213,1739,1,0.65,1.4,1.0,-0.21813541339211798,0.9862932495091427,2.0,4.0
934,3,214,3157,-1,2.3,0.65,1.0,2.431607644990653,-0.21813541339211714,5.0,2.0
935,3,215,1509,-1,1.1,0.0,1.0,0.504521784348638,-1.2619735879065426,3.0,0.0
936,3,216,4811,1,0.65,2.45,1.0,-0.21813541339211798,2.672493377570907,2.0,5.0
937,3,217,1924,-1,0.95,0.05,1.0,0.26363605176838584,-1.181678343713125,3.0,1.0
938,3,218,1294,-1,0.65,0.05,1.0,-0.21813541339211798,-1.181678343713125,2.0,1.0
939,3,219,1835,-1,0.2,1.55,1.0,-0.9407926111328738,1.227178982089395,1.0,4.0
940,3,220,2191,1,0.0,0.95,1.0,-1.2619735879065432,0.2636360517683868,0.0,3.0
941,3,221,1573,1,1.4,1.7,1.0,0.9862932495091417,1.4680647146696468,4.0,5.0
942,3,222,2013,-1,2.3,0.95,1.0,2.431607644990653,0.2636360517683868,5.0,3.0
943,3,223,1253,-1,1.55,0.35,1.0,1.227178982089394,-0.6999068785526212,4.0,1.0
944,3,224,2332,-1,0.5,0.0,1.0,-0.45902114597237,-1.2619735879065426,2.0,0.0
945,3,225,3469,1,1.55,2.45,1.0,1.227178982089394,2.672493377570907,4.0,5.0
946,3,226,7005,-1,0.35,0.8,1.0,-0.699906878552622,0.0227503191881349,1.0,3.0
947,3,227,4749,-1,0.95,0.05,1.0,0.26363605176838584,-1.181678343713125,3.0,1.0
948,3,228,2096,1,1.1,2.45,1.0,0.504521784348638,2.672493377570907,3.0,5.0
949,3,229,1272,-1,1.55,0.0,1.0,1.227178982089394,-1.2619735879065426,4.0,0.0
950,3,230,3300,-1,0.35,0.05,1.0,-0.699906878552622,-1.181678343713125,1.0,1.0
951,3,231,1336,-1,1.1,0.05,1.0,0.504521784348638,-1.181678343713125,3.0,1.0
952,3,232,1260,-1,1.4,0.05,1.0,0.9862932495091417,-1.181678343713125,4.0,1.0
953,3,233,1340,-1,0.05,0.0,1.0,-1.1816783437131257,-1.2619735879065426,1.0,0.0
954,3,234,3912,-1,0.65,0.05,1.0,-0.21813541339211798,-1.181678343713125,2.0,1.0
955,3,235,1344,-1,0.05,0.0,1.0,-1.1816783437131257,-1.2619735879065426,1.0,0.0
956,3,236,3005,1,0.65,1.1,1.0,-0.21813541339211798,0.504521784348639,2.0,3.0
957,3,237,1676,-1,1.1,0.95,1.0,0.504521784348638,0.2636360517683868,3.0,3.0
958,3,238,2666,-1,0.5,1.1,1.0,-0.45902114597237,0.504521784348639,2.0,3.0
959,3,239,1883,1,0.65,2.45,1.0,-0.21813541339211798,2.672493377570907,2.0,5.0
960,4,0,5222,1,0.0,0.0,2.0,-0.7279027353854134,-0.7279027353854154,1.0,1.0
961,4,1,3005,1,0.65,0.0,2.0,1.0519221348359737,-0.7279027353854154,5.0,1.0
962,4,2,4264,-1,0.0,0.0,2.0,-0.7279027353854134,-0.7279027353854154,1.0,1.0
963,4,3,3576,-1,0.5,0.95,2.0,0.6411933186310382,1.8733797672458514,4.0,5.0
964,4,4,4101,1,0.8,0.65,2.0,1.4626509510409091,1.0519221348359777,5.0,5.0
965,4,5,3769,-1,0.0,0.8,2.0,-0.7279027353854134,1.4626509510409147,1.0,5.0
966,4,6,5630,-1,0.0,0.0,2.0,-0.7279027353854134,-0.7279027353854154,1.0,1.0
967,4,7,7975,1,0.5,0.0,2.0,0.6411933186310382,-0.7279027353854154,4.0,1.0
968,4,8,3312,-1,0.0,0.65,2.0,-0.7279027353854134,1.0519221348359777,1.0,5.0
969,4,9,6307,-1,0.05,0.2,2.0,-0.5909931299837683,-0.18026431377883284,1.0,2.0
970,4,10,2421,-1,0.0,0.8,2.0,-0.7279027353854134,1.4626509510409147,1.0,5.0
971,4,11,3952,1,0.6,0.35,2.0,0.9150125294343285,0.23046450242610392,5.0,3.0
972,4,12,3593,-1,0.0,0.05,2.0,-0.7279027353854134,-0.5909931299837697,1.0,1.0
973,4,13,2755,1,1.1,0.0,2.0,2.2841085834507804,-0.7279027353854154,5.0,1.0
974,4,14,2761,1,0.2,0.0,2.0,-0.1802643137788327,-0.7279027353854154,2.0,1.0
975,4,15,2862,-1,0.35,0.8,2.0,0.2304645024261027,1.4626509510409147,3.0,5.0
976,4,16,3387,1,0.05,0.0,2.0,-0.5909931299837683,-0.7279027353854154,1.0,1.0
977,4,17,7527,-1,0.5,0.65,2.0,0.6411933186310382,1.0519221348359777,4.0,5.0
978,4,18,2628,-1,0.0,0.0,2.0,-0.7279027353854134,-0.7279027353854154,1.0,1.0
979,4,19,2234,-1,0.0,0.05,2.0,-0.7279027353854134,-0.5909931299837697,1.0,1.0
980,4,20,7720,-1,0.5,1.1,2.0,0.6411933186310382,2.2841085834507884,4.0,5.0
981,4,21,2831,-1,0.0,0.8,2.0,-0.7279027353854134,1.4626509510409147,1.0,5.0
982,4,22,9213,1,0.0,0.0,2.0,-0.7279027353854134,-0.7279027353854154,1.0,1.0
983,4,23,2965,-1,0.0,0.95,2.0,-0.7279027353854134,1.8733797672458514,1.0,5.0
984,4,24,2774,1,0.05,0.0,2.0,-0.5909931299837683,-0.7279027353854154,1.0,1.0
985,4,25,5143,-1,0.0,0.0,2.0,-0.7279027353854134,-0.7279027353854154,1.0,1.0
986,4,26,2852,-1,0.0,1.1,2.0,-0.7279027353854134,2.2841085834507884,1.0,5.0
987,4,27,4989,-1,0.0,0.5,2.0,-0.7279027353854134,0.6411933186310409,1.0,4.0
988,4,28,3957,1,0.5,0.0,2.0,0.6411933186310382,-0.7279027353854154,4.0,1.0
989,4,29,2622,-1,0.0,0.95,2.0,-0.7279027353854134,1.8733797672458514,1.0,5.0
990,4,30,3354,1,1.1,0.05,2.0,2.2841085834507804,-0.5909931299837697,5.0,1.0
991,4,31,1733,1,0.6,0.0,2.0,0.9150125294343285,-0.7279027353854154,5.0,1.0
992,4,32,3966,-1,0.0,0.0,2.0,-0.7279027353854134,-0.7279027353854154,1.0,1.0
993,4,33,5645,-1,0.05,0.0,2.0,-0.5909931299837683,-0.7279027353854154,1.0,1.0
994,4,34,7195,-1,0.0,0.0,2.0,-0.7279027353854134,-0.7279027353854154,1.0,1.0
995,4,35,1676,1,1.1,0.0,2.0,2.2841085834507804,-0.7279027353854154,5.0,1.0
996,4,36,1211,1,0.8,0.5,2.0,1.4626509510409091,0.6411933186310409,5.0,4.0
997,4,37,1440,1,0.0,0.0,2.0,-0.7279027353854134,-0.7279027353854154,1.0,1.0
998,4,38,3679,-1,0.05,0.2,2.0,-0.5909931299837683,-0.18026431377883284,1.0,2.0
999,4,39,2146,-1,0.0,0.0,2.0,-0.7279027353854134,-0.7279027353854154,1.0,1.0
1000,4,40,1944,-1,0.05,0.0,1.0,-0.5909931299837683,-0.7279027353854154,1.0,1.0
1001,4,41,3591,1,0.0,0.0,1.0,-0.7279027353854134,-0.7279027353854154,1.0,1.0
1002,4,42,1669,-1,0.8,0.65,1.0,1.4626509510409091,1.0519221348359777,5.0,5.0
1003,4,43,1473,-1,0.6,0.0,1.0,0.9150125294343285,-0.7279027353854154,5.0,1.0
1004,4,44,1379,1,0.0,0.65,1.0,-0.7279027353854134,1.0519221348359777,1.0,5.0
1005,4,45,2554,1,0.0,0.0,1.0,-0.7279027353854134,-0.7279027353854154,1.0,1.0
1006,4,46,1539,-1,0.5,0.0,1.0,0.6411933186310382,-0.7279027353854154,4.0,1.0
1007,4,47,1370,1,0.0,0.0,1.0,-0.7279027353854134,-0.7279027353854154,1.0,1.0
1008,4,48,1375,1,0.0,0.95,1.0,-0.7279027353854134,1.8733797672458514,1.0,5.0
1009,4,49,3063,1,0.05,0.2,1.0,-0.5909931299837683,-0.18026431377883284,1.0,2.0
1010,4,50,1369,1,0.0,0.05,1.0,-0.7279027353854134,-0.5909931299837697,1.0,1.0
1011,4,51,1598,1,0.0,0.95,1.0,-0.7279027353854134,1.8733797672458514,1.0,5.0
1012,4,52,1833,-1,0.0,0.0,1.0,-0.7279027353854134,-0.7279027353854154,1.0,1.0
1013,4,53,1252,1,0.35,0.8,1.0,0.2304645024261027,1.4626509510409147,3.0,5.0
1014,4,54,1773,-1,0.65,0.0,1.0,1.0519221348359737,-0.7279027353854154,5.0,1.0
1015,4,55,1471,1,0.0,0.8,1.0,-0.7279027353854134,1.4626509510409147,1.0,5.0
1016,4,56,3207,-1,0.5,0.0,1.0,0.6411933186310382,-0.7279027353854154,4.0,1.0
1017,4,57,1903,-1,0.0,0.0,1.0,-0.7279027353854134,-0.7279027353854154,1.0,1.0
1018,4,58,2550,-1,1.1,0.05,1.0,2.2841085834507804,-0.5909931299837697,5.0,1.0
1019,4,59,1988,-1,0.2,0.0,1.0,-0.1802643137788327,-0.7279027353854154,2.0,1.0
1020,4,60,1531,-1,1.1,0.0,1.0,2.2841085834507804,-0.7279027353854154,5.0,1.0
1021,4,61,4111,1,0.5,0.65,1.0,0.6411933186310382,1.0519221348359777,4.0,5.0
1022,4,62,5355,1,0.0,0.0,1.0,-0.7279027353854134,-0.7279027353854154,1.0,1.0
1023,4,63,1387,-1,1.1,0.0,1.0,2.2841085834507804,-0.7279027353854154,5.0,1.0
1024,4,64,1688,-1,0.6,0.35,1.0,0.9150125294343285,0.23046450242610392,5.0,3.0
1025,4,65,3569,1,0.0,0.05,1.0,-0.7279027353854134,-0.5909931299837697,1.0,1.0
1026,4,66,1619,1,0.5,1.1,1.0,0.6411933186310382,2.2841085834507884,4.0,5.0
1027,4,67,4123,1,0.0,0.0,1.0,-0.7279027353854134,-0.7279027353854154,1.0,1.0
1028,4,68,1834,1,0.0,0.0,1.0,-0.7279027353854134,-0.7279027353854154,1.0,1.0
1029,4,69,1416,1,0.05,0.2,1.0,-0.5909931299837683,-0.18026431377883284,1.0,2.0
1030,4,70,1288,1,0.0,0.8,1.0,-0.7279027353854134,1.4626509510409147,1.0,5.0
1031,4,71,1361,1,0.0,1.1,1.0,-0.7279027353854134,2.2841085834507884,1.0,5.0
1032,4,72,1465,1,0.05,0.0,1.0,-0.5909931299837683,-0.7279027353854154,1.0,1.0
1033,4,73,1650,-1,0.05,0.0,1.0,-0.5909931299837683,-0.7279027353854154,1.0,1.0
1034,4,74,2292,1,0.0,0.0,1.0,-0.7279027353854134,-0.7279027353854154,1.0,1.0
1035,4,75,1348,1,0.0,0.5,1.0,-0.7279027353854134,0.6411933186310409,1.0,4.0
1036,4,76,1407,-1,0.8,0.5,1.0,1.4626509510409091,0.6411933186310409,5.0,4.0
1037,4,77,1486,1,0.0,0.8,1.0,-0.7279027353854134,1.4626509510409147,1.0,5.0
1038,4,78,1610,1,0.5,0.95,1.0,0.6411933186310382,1.8733797672458514,4.0,5.0
1039,4,79,2680,-1,0.0,0.0,1.0,-0.7279027353854134,-0.7279027353854154,1.0,1.0
1040,4,80,2987,1,0.0,0.0,2.0,-0.7279027353854134,-0.7279027353854154,1.0,1.0
1041,4,81,1400,1,0.0,0.0,2.0,-0.7279027353854134,-0.7279027353854154,1.0,1.0
1042,4,82,1921,1,0.0,0.0,2.0,-0.7279027353854134,-0.7279027353854154,1.0,1.0
1043,4,83,5268,-1,0.8,0.8,2.0,1.4626509510409091,1.4626509510409147,5.0,5.0
1044,4,84,5303,-1,0.0,1.1,2.0,-0.7279027353854134,2.2841085834507884,1.0,5.0
1045,4,85,1447,1,0.8,0.0,2.0,1.4626509510409091,-0.7279027353854154,5.0,1.0
1046,4,86,1275,-1,0.0,0.5,2.0,-0.7279027353854134,0.6411933186310409,1.0,4.0
1047,4,87,2740,-1,0.0,0.2,2.0,-0.7279027353854134,-0.18026431377883284,1.0,2.0
1048,4,88,1491,1,0.0,0.0,2.0,-0.7279027353854134,-0.7279027353854154,1.0,1.0
1049,4,89,1521,-1,0.5,0.8,2.0,0.6411933186310382,1.4626509510409147,4.0,5.0
1050,4,90,1373,-1,0.0,0.0,2.0,-0.7279027353854134,-0.7279027353854154,1.0,1.0
1051,4,91,1781,1,0.5,0.0,2.0,0.6411933186310382,-0.7279027353854154,4.0,1.0
1052,4,92,2364,1,0.65,0.05,2.0,1.0519221348359737,-0.5909931299837697,5.0,1.0
1053,4,93,3183,1,0.65,0.5,2.0,1.0519221348359737,0.6411933186310409,5.0,4.0
1054,4,94,2299,1,0.0,0.0,2.0,-0.7279027353854134,-0.7279027353854154,1.0,1.0
1055,4,95,1407,1,1.1,0.0,2.0,2.2841085834507804,-0.7279027353854154,5.0,1.0
1056,4,96,1452,1,0.8,0.35,2.0,1.4626509510409091,0.23046450242610392,5.0,3.0
1057,4,97,1164,-1,0.0,0.65,2.0,-0.7279027353854134,1.0519221348359777,1.0,5.0
1058,4,98,2983,1,0.35,0.0,2.0,0.2304645024261027,-0.7279027353854154,3.0,1.0
1059,4,99,1923,1,0.05,0.0,2.0,-0.5909931299837683,-0.7279027353854154,1.0,1.0
1060,4,100,876,-1,0.0,1.1,2.0,-0.7279027353854134,2.2841085834507884,1.0,5.0
1061,4,101,2857,1,0.0,0.0,2.0,-0.7279027353854134,-0.7279027353854154,1.0,1.0
1062,4,102,2844,1,0.0,0.0,2.0,-0.7279027353854134,-0.7279027353854154,1.0,1.0
1063,4,103,2683,1,0.8,0.0,2.0,1.4626509510409091,-0.7279027353854154,5.0,1.0
1064,4,104,1196,1,0.0,0.0,2.0,-0.7279027353854134,-0.7279027353854154,1.0,1.0
1065,4,105,1227,-1,0.0,0.05,2.0,-0.7279027353854134,-0.5909931299837697,1.0,1.0
1066,4,106,1266,1,0.8,0.0,2.0,1.4626509510409091,-0.7279027353854154,5.0,1.0
1067,4,107,1336,1,0.65,0.0,2.0,1.0519221348359737,-0.7279027353854154,5.0,1.0
1068,4,108,2497,1,0.8,0.05,2.0,1.4626509510409091,-0.5909931299837697,5.0,1.0
1069,4,109,1481,1,0.8,0.0,2.0,1.4626509510409091,-0.7279027353854154,5.0,1.0
1070,4,110,2890,-1,0.35,0.0,2.0,0.2304645024261027,-0.7279027353854154,3.0,1.0
1071,4,111,1645,-1,0.05,1.1,2.0,-0.5909931299837683,2.2841085834507884,1.0,5.0
1072,4,112,1103,1,0.2,0.05,2.0,-0.1802643137788327,-0.5909931299837697,2.0,1.0
1073,4,113,2478,1,0.0,0.0,2.0,-0.7279027353854134,-0.7279027353854154,1.0,1.0
1074,4,114,1333,-1,0.05,0.95,2.0,-0.5909931299837683,1.8733797672458514,1.0,5.0
1075,4,115,1416,1,0.05,0.0,2.0,-0.5909931299837683,-0.7279027353854154,1.0,1.0
1076,4,116,1183,-1,0.0,0.5,2.0,-0.7279027353854134,0.6411933186310409,1.0,4.0
1077,4,117,2441,-1,0.0,0.0,2.0,-0.7279027353854134,-0.7279027353854154,1.0,1.0
1078,4,118,1500,-1,0.0,0.2,2.0,-0.7279027353854134,-0.18026431377883284,1.0,2.0
1079,4,119,1450,-1,0.0,0.8,2.0,-0.7279027353854134,1.4626509510409147,1.0,5.0
1080,4,120,2420,-1,0.0,0.0,1.0,-0.7279027353854134,-0.7279027353854154,1.0,1.0
1081,4,121,2161,-1,0.0,0.0,1.0,-0.7279027353854134,-0.7279027353854154,1.0,1.0
1082,4,122,1342,-1,0.8,0.0,1.0,1.4626509510409091,-0.7279027353854154,5.0,1.0
1083,4,123,1253,1,0.0,0.0,1.0,-0.7279027353854134,-0.7279027353854154,1.0,1.0
1084,4,124,1262,-1,0.8,0.0,1.0,1.4626509510409091,-0.7279027353854154,5.0,1.0
1085,4,125,1895,1,0.0,0.0,1.0,-0.7279027353854134,-0.7279027353854154,1.0,1.0
1086,4,126,2956,-1,0.65,0.5,1.0,1.0519221348359737,0.6411933186310409,5.0,4.0
1087,4,127,1518,-1,0.8,0.0,1.0,1.4626509510409091,-0.7279027353854154,5.0,1.0
1088,4,128,1020,1,0.0,1.1,1.0,-0.7279027353854134,2.2841085834507884,1.0,5.0
1089,4,129,1407,-1,0.0,0.0,1.0,-0.7279027353854134,-0.7279027353854154,1.0,1.0
1090,4,130,2155,-1,0.5,0.0,1.0,0.6411933186310382,-0.7279027353854154,4.0,1.0
1091,4,131,1575,1,0.0,0.65,1.0,-0.7279027353854134,1.0519221348359777,1.0,5.0
1092,4,132,1830,-1,0.0,0.0,1.0,-0.7279027353854134,-0.7279027353854154,1.0,1.0
1093,4,133,1061,-1,0.0,0.0,1.0,-0.7279027353854134,-0.7279027353854154,1.0,1.0
1094,4,134,1095,1,0.5,0.8,1.0,0.6411933186310382,1.4626509510409147,4.0,5.0
1095,4,135,1536,1,0.0,0.0,1.0,-0.7279027353854134,-0.7279027353854154,1.0,1.0
1096,4,136,1046,-1,1.1,0.0,1.0,2.2841085834507804,-0.7279027353854154,5.0,1.0
1097,4,137,1951,-1,0.8,0.35,1.0,1.4626509510409091,0.23046450242610392,5.0,3.0
1098,4,138,1306,-1,0.0,0.0,1.0,-0.7279027353854134,-0.7279027353854154,1.0,1.0
1099,4,139,1983,1,0.0,0.2,1.0,-0.7279027353854134,-0.18026431377883284,1.0,2.0
1100,4,140,1847,-1,0.0,0.2,1.0,-0.7279027353854134,-0.18026431377883284,1.0,2.0
1101,4,141,1761,1,0.05,0.95,1.0,-0.5909931299837683,1.8733797672458514,1.0,5.0
1102,4,142,2454,-1,0.05,0.0,1.0,-0.5909931299837683,-0.7279027353854154,1.0,1.0
1103,4,143,2720,1,0.35,0.0,1.0,0.2304645024261027,-0.7279027353854154,3.0,1.0
1104,4,144,1076,-1,0.2,0.05,1.0,-0.1802643137788327,-0.5909931299837697,2.0,1.0
1105,4,145,1871,1,0.0,0.8,1.0,-0.7279027353854134,1.4626509510409147,1.0,5.0
1106,4,146,926,-1,0.65,0.05,1.0,1.0519221348359737,-0.5909931299837697,5.0,1.0
1107,4,147,1366,-1,0.05,0.0,1.0,-0.5909931299837683,-0.7279027353854154,1.0,1.0
1108,4,148,1282,1,0.0,1.1,1.0,-0.7279027353854134,2.2841085834507884,1.0,5.0
1109,4,149,1485,1,0.0,0.05,1.0,-0.7279027353854134,-0.5909931299837697,1.0,1.0
1110,4,150,2086,-1,0.8,0.05,1.0,1.4626509510409091,-0.5909931299837697,5.0,1.0
1111,4,151,1351,-1,0.65,0.0,1.0,1.0519221348359737,-0.7279027353854154,5.0,1.0
1112,4,152,1516,-1,0.0,0.5,1.0,-0.7279027353854134,0.6411933186310409,1.0,4.0
1113,4,153,1085,1,0.0,0.0,1.0,-0.7279027353854134,-0.7279027353854154,1.0,1.0
1114,4,154,1580,-1,0.35,0.0,1.0,0.2304645024261027,-0.7279027353854154,3.0,1.0
1115,4,155,1235,-1,0.8,0.0,1.0,1.4626509510409091,-0.7279027353854154,5.0,1.0
1116,4,156,1850,1,0.8,0.8,1.0,1.4626509510409091,1.4626509510409147,5.0,5.0
1117,4,157,1398,1,0.05,1.1,1.0,-0.5909931299837683,2.2841085834507884,1.0,5.0
1118,4,158,1486,1,0.0,0.5,1.0,-0.7279027353854134,0.6411933186310409,1.0,4.0
1119,4,159,4333,-1,0.0,0.0,1.0,-0.7279027353854134,-0.7279027353854154,1.0,1.0
1120,4,160,1562,-1,0.0,0.6,2.0,-0.7279027353854134,0.9150125294343321,1.0,5.0
1121,4,161,1767,-1,0.0,0.0,2.0,-0.7279027353854134,-0.7279027353854154,1.0,1.0
1122,4,162,888,-1,0.05,0.8,2.0,-0.5909931299837683,1.4626509510409147,1.0,5.0
1123,4,163,1439,1,0.2,0.05,2.0,-0.1802643137788327,-0.5909931299837697,2.0,1.0
1124,4,164,1676,1,0.65,0.0,2.0,1.0519221348359737,-0.7279027353854154,5.0,1.0
1125,4,165,1546,-1,0.35,0.6,2.0,0.2304645024261027,0.9150125294343321,3.0,5.0
1126,4,166,1249,1,1.1,0.0,2.0,2.2841085834507804,-0.7279027353854154,5.0,1.0
1127,4,167,1145,1,0.95,0.0,2.0,1.8733797672458445,-0.7279027353854154,5.0,1.0
1128,4,168,1512,1,0.0,0.35,2.0,-0.7279027353854134,0.23046450242610392,1.0,3.0
1129,4,169,1367,-1,0.0,0.8,2.0,-0.7279027353854134,1.4626509510409147,1.0,5.0
1130,4,170,1522,1,0.95,0.05,2.0,1.8733797672458445,-0.5909931299837697,5.0,1.0
1131,4,171,1074,1,0.0,0.0,2.0,-0.7279027353854134,-0.7279027353854154,1.0,1.0
1132,4,172,934,1,1.1,0.5,2.0,2.2841085834507804,0.6411933186310409,5.0,4.0
1133,4,173,1556,-1,0.0,0.5,2.0,-0.7279027353854134,0.6411933186310409,1.0,4.0
1134,4,174,1114,-1,0.0,0.8,2.0,-0.7279027353854134,1.4626509510409147,1.0,5.0
1135,4,175,1621,-1,0.0,0.35,2.0,-0.7279027353854134,0.23046450242610392,1.0,3.0
1136,4,176,2184,-1,0.0,0.0,2.0,-0.7279027353854134,-0.7279027353854154,1.0,1.0
1137,4,177,1325,1,0.5,0.0,2.0,0.6411933186310382,-0.7279027353854154,4.0,1.0
1138,4,178,1246,-1,0.0,0.0,2.0,-0.7279027353854134,-0.7279027353854154,1.0,1.0
1139,4,179,1597,-1,0.0,0.05,2.0,-0.7279027353854134,-0.5909931299837697,1.0,1.0
1140,4,180,2734,1,0.8,0.8,2.0,1.4626509510409091,1.4626509510409147,5.0,5.0
1141,4,181,1054,-1,0.0,0.65,2.0,-0.7279027353854134,1.0519221348359777,1.0,5.0
1142,4,182,4260,1,0.2,0.0,2.0,-0.1802643137788327,-0.7279027353854154,2.0,1.0
1143,4,183,1232,-1,0.0,0.0,2.0,-0.7279027353854134,-0.7279027353854154,1.0,1.0
1144,4,184,1732,-1,0.0,0.0,2.0,-0.7279027353854134,-0.7279027353854154,1.0,1.0
1145,4,185,843,-1,0.0,1.1,2.0,-0.7279027353854134,2.2841085834507884,1.0,5.0
1146,4,186,1250,1,0.0,0.05,2.0,-0.7279027353854134,-0.5909931299837697,1.0,1.0
1147,4,187,1576,1,0.05,0.0,2.0,-0.5909931299837683,-0.7279027353854154,1.0,1.0
1148,4,188,1219,-1,0.65,0.8,2.0,1.0519221348359737,1.4626509510409147,5.0,5.0
1149,4,189,1461,-1,0.0,0.0,2.0,-0.7279027353854134,-0.7279027353854154,1.0,1.0
1150,4,190,2581,-1,0.0,0.05,2.0,-0.7279027353854134,-0.5909931299837697,1.0,1.0
1151,4,191,985,1,0.95,0.0,2.0,1.8733797672458445,-0.7279027353854154,5.0,1.0
1152,4,192,961,1,0.8,0.0,2.0,1.4626509510409091,-0.7279027353854154,5.0,1.0
1153,4,193,978,1,0.8,0.0,2.0,1.4626509510409091,-0.7279027353854154,5.0,1.0
1154,4,194,4419,-1,0.0,0.0,2.0,-0.7279027353854134,-0.7279027353854154,1.0,1.0
1155,4,195,1302,-1,0.0,0.0,2.0,-0.7279027353854134,-0.7279027353854154,1.0,1.0
1156,4,196,1153,1,0.0,0.0,2.0,-0.7279027353854134,-0.7279027353854154,1.0,1.0
1157,4,197,1033,-1,0.05,0.65,2.0,-0.5909931299837683,1.0519221348359777,1.0,5.0
1158,4,198,957,1,0.95,0.5,2.0,1.8733797672458445,0.6411933186310409,5.0,4.0
1159,4,199,1271,1,0.0,0.0,2.0,-0.7279027353854134,-0.7279027353854154,1.0,1.0
1160,4,200,2015,-1,0.5,0.0,1.0,0.6411933186310382,-0.7279027353854154,4.0,1.0
1161,4,201,1236,-1,0.95,0.0,1.0,1.8733797672458445,-0.7279027353854154,5.0,1.0
1162,4,202,1346,1,0.0,0.0,1.0,-0.7279027353854134,-0.7279027353854154,1.0,1.0
1163,4,203,1235,1,0.65,0.8,1.0,1.0519221348359737,1.4626509510409147,5.0,5.0
1164,4,204,1382,1,0.0,0.0,1.0,-0.7279027353854134,-0.7279027353854154,1.0,1.0
1165,4,205,1491,1,0.0,0.0,1.0,-0.7279027353854134,-0.7279027353854154,1.0,1.0
1166,4,206,2413,-1,0.65,0.0,1.0,1.0519221348359737,-0.7279027353854154,5.0,1.0
1167,4,207,1509,-1,0.8,0.0,1.0,1.4626509510409091,-0.7279027353854154,5.0,1.0
1168,4,208,1114,1,0.0,0.5,1.0,-0.7279027353854134,0.6411933186310409,1.0,4.0
1169,4,209,1071,1,0.0,0.6,1.0,-0.7279027353854134,0.9150125294343321,1.0,5.0
1170,4,210,1696,-1,0.0,0.0,1.0,-0.7279027353854134,-0.7279027353854154,1.0,1.0
1171,4,211,2318,1,0.2,0.05,1.0,-0.1802643137788327,-0.5909931299837697,2.0,1.0
1172,4,212,1504,-1,1.1,0.0,1.0,2.2841085834507804,-0.7279027353854154,5.0,1.0
1173,4,213,1920,-1,1.1,0.5,1.0,2.2841085834507804,0.6411933186310409,5.0,4.0
1174,4,214,1381,-1,0.95,0.0,1.0,1.8733797672458445,-0.7279027353854154,5.0,1.0
1175,4,215,4618,1,0.0,0.05,1.0,-0.7279027353854134,-0.5909931299837697,1.0,1.0
1176,4,216,1067,1,0.35,0.6,1.0,0.2304645024261027,0.9150125294343321,3.0,5.0
1177,4,217,1600,-1,0.0,0.0,1.0,-0.7279027353854134,-0.7279027353854154,1.0,1.0
1178,4,218,903,1,0.0,0.0,1.0,-0.7279027353854134,-0.7279027353854154,1.0,1.0
1179,4,219,1515,1,0.0,0.05,1.0,-0.7279027353854134,-0.5909931299837697,1.0,1.0
1180,4,220,1737,-1,0.2,0.0,1.0,-0.1802643137788327,-0.7279027353854154,2.0,1.0
1181,4,221,943,1,0.0,1.1,1.0,-0.7279027353854134,2.2841085834507884,1.0,5.0
1182,4,222,1317,1,0.05,0.65,1.0,-0.5909931299837683,1.0519221348359777,1.0,5.0
1183,4,223,1197,1,0.0,0.8,1.0,-0.7279027353854134,1.4626509510409147,1.0,5.0
1184,4,224,2430,1,0.0,0.0,1.0,-0.7279027353854134,-0.7279027353854154,1.0,1.0
1185,4,225,1257,-1,0.8,0.0,1.0,1.4626509510409091,-0.7279027353854154,5.0,1.0
1186,4,226,2005,1,0.0,0.35,1.0,-0.7279027353854134,0.23046450242610392,1.0,3.0
1187,4,227,1129,1,0.0,0.8,1.0,-0.7279027353854134,1.4626509510409147,1.0,5.0
1188,4,228,1162,1,0.0,0.65,1.0,-0.7279027353854134,1.0519221348359777,1.0,5.0
1189,4,229,1801,-1,0.0,0.0,1.0,-0.7279027353854134,-0.7279027353854154,1.0,1.0
1190,4,230,2430,1,0.0,0.0,1.0,-0.7279027353854134,-0.7279027353854154,1.0,1.0
1191,4,231,1379,1,0.05,0.8,1.0,-0.5909931299837683,1.4626509510409147,1.0,5.0
1192,4,232,1529,-1,0.95,0.5,1.0,1.8733797672458445,0.6411933186310409,5.0,4.0
1193,4,233,2327,-1,0.0,0.0,1.0,-0.7279027353854134,-0.7279027353854154,1.0,1.0
1194,4,234,1531,-1,0.0,0.35,1.0,-0.7279027353854134,0.23046450242610392,1.0,3.0
1195,4,235,1360,-1,0.0,0.05,1.0,-0.7279027353854134,-0.5909931299837697,1.0,1.0
1196,4,236,1619,-1,0.05,0.0,1.0,-0.5909931299837683,-0.7279027353854154,1.0,1.0
1197,4,237,1415,-1,0.0,0.0,1.0,-0.7279027353854134,-0.7279027353854154,1.0,1.0
1198,4,238,1552,-1,0.8,0.8,1.0,1.4626509510409091,1.4626509510409147,5.0,5.0
1199,4,239,1627,-1,0.95,0.05,1.0,1.8733797672458445,-0.5909931299837697,5.0,1.0
1680,5,0,4573,-1,0.5,0.65,2.0,-0.7044823098536466,-0.218632440989061,0.0,2.0
1681,5,1,3339,-1,0.5,0.8,2.0,-0.7044823098536466,0.2672174278755223,0.0,3.0
1682,5,2,5410,1,1.4,0.0,2.0,2.210616903333851,-2.323981872735588,5.0,0.0
1683,5,3,10236,1,0.65,0.8,2.0,-0.21863244098906345,0.2672174278755223,2.0,3.0
1684,5,4,5784,-1,0.5,0.65,2.0,-0.7044823098536466,-0.218632440989061,0.0,2.0
1685,5,5,3272,1,1.1,0.5,2.0,1.2389171656046858,-0.7044823098536442,5.0,0.0
1686,5,6,2593,1,0.8,0.65,2.0,0.2672174278755196,-0.218632440989061,3.0,2.0
1687,5,7,4628,1,1.1,0.65,2.0,1.2389171656046858,-0.218632440989061,5.0,2.0
1688,5,8,2522,1,0.65,0.0,2.0,-0.21863244098906345,-2.323981872735588,2.0,0.0
1689,5,9,9605,-1,0.65,0.8,2.0,-0.21863244098906345,0.2672174278755223,2.0,3.0
1690,5,10,1583,1,0.2,0.95,2.0,-1.6761820475828124,0.7530672967401052,0.0,5.0
1691,5,11,5220,-1,0.8,1.1,2.0,0.2672174278755196,1.2389171656046887,3.0,5.0
1692,5,12,7521,1,0.65,0.65,2.0,-0.21863244098906345,-0.218632440989061,2.0,2.0
1693,5,13,2083,-1,0.0,0.5,2.0,-2.32398187273559,-0.7044823098536442,0.0,0.0
1694,5,14,3647,-1,0.95,0.8,2.0,0.7530672967401023,0.2672174278755223,5.0,3.0
1695,5,15,2790,-1,0.0,0.5,2.0,-2.32398187273559,-0.7044823098536442,0.0,0.0
1696,5,16,4538,-1,0.95,1.1,2.0,0.7530672967401023,1.2389171656046887,5.0,5.0
1697,5,17,2889,-1,0.35,0.95,2.0,-1.1903321787182297,0.7530672967401052,0.0,5.0
1698,5,18,4539,1,0.2,0.8,2.0,-1.6761820475828124,0.2672174278755223,0.0,3.0
1699,5,19,2411,1,0.8,0.8,2.0,0.2672174278755196,0.2672174278755223,3.0,3.0
1700,5,20,1791,-1,0.35,0.65,2.0,-1.1903321787182297,-0.218632440989061,0.0,2.0
1701,5,21,11451,-1,0.95,0.65,2.0,0.7530672967401023,-0.218632440989061,5.0,2.0
1702,5,22,12467,-1,0.65,0.95,2.0,-0.21863244098906345,0.7530672967401052,2.0,5.0
1703,5,23,3323,-1,0.5,0.5,2.0,-0.7044823098536466,-0.7044823098536442,0.0,0.0
1704,5,24,3139,-1,0.95,0.5,2.0,0.7530672967401023,-0.7044823098536442,5.0,0.0
1705,5,25,6585,-1,0.8,1.1,2.0,0.2672174278755196,1.2389171656046887,3.0,5.0
1706,5,26,2175,1,0.95,0.35,2.0,0.7530672967401023,-1.1903321787182275,5.0,0.0
1707,5,27,9514,1,0.65,1.1,2.0,-0.21863244098906345,1.2389171656046887,2.0,5.0
1708,5,28,2883,1,1.25,1.1,2.0,1.7247670344692685,1.2389171656046887,5.0,5.0
1709,5,29,6008,1,1.1,0.8,2.0,1.2389171656046858,0.2672174278755223,5.0,3.0
1710,5,30,2064,1,1.1,0.2,2.0,1.2389171656046858,-1.6761820475828109,5.0,0.0
1711,5,31,2596,-1,0.95,0.65,2.0,0.7530672967401023,-0.218632440989061,5.0,2.0
1712,5,32,7987,-1,0.95,0.95,2.0,0.7530672967401023,0.7530672967401052,5.0,5.0
1713,5,33,3846,-1,0.8,0.95,2.0,0.2672174278755196,0.7530672967401052,3.0,5.0
1714,5,34,4457,-1,0.35,0.95,2.0,-1.1903321787182297,0.7530672967401052,0.0,5.0
1715,5,35,2606,-1,0.5,0.8,2.0,-0.7044823098536466,0.2672174278755223,0.0,3.0
1716,5,36,2338,-1,0.5,0.65,2.0,-0.7044823098536466,-0.218632440989061,0.0,2.0
1717,5,37,9804,-1,0.65,0.8,2.0,-0.21863244098906345,0.2672174278755223,2.0,3.0
1718,5,38,4005,1,1.4,0.95,2.0,2.210616903333851,0.7530672967401052,5.0,5.0
1719,5,39,4239,1,0.8,0.5,2.0,0.2672174278755196,-0.7044823098536442,3.0,0.0
1720,5,40,2028,-1,1.4,0.95,1.0,2.210616903333851,0.7530672967401052,5.0,5.0
1721,5,41,2197,1,0.5,0.65,1.0,-0.7044823098536466,-0.218632440989061,0.0,2.0
1722,5,42,1864,1,0.5,0.8,1.0,-0.7044823098536466,0.2672174278755223,0.0,3.0
1723,5,43,2066,1,0.35,0.65,1.0,-1.1903321787182297,-0.218632440989061,0.0,2.0
1724,5,44,1702,1,0.35,0.95,1.0,-1.1903321787182297,0.7530672967401052,0.0,5.0
1725,5,45,2343,1,0.2,0.95,1.0,-1.6761820475828124,0.7530672967401052,0.0,5.0
1726,5,46,3469,-1,1.1,0.8,1.0,1.2389171656046858,0.2672174278755223,5.0,3.0
1727,5,47,4105,-1,0.8,0.5,1.0,0.2672174278755196,-0.7044823098536442,3.0,0.0
1728,5,48,2482,1,0.0,0.5,1.0,-2.32398187273559,-0.7044823098536442,0.0,0.0
1729,5,49,3178,1,0.35,0.95,1.0,-1.1903321787182297,0.7530672967401052,0.0,5.0
1730,5,50,1763,-1,1.1,0.65,1.0,1.2389171656046858,-0.218632440989061,5.0,2.0
1731,5,51,2708,1,0.95,0.95,1.0,0.7530672967401023,0.7530672967401052,5.0,5.0
1732,5,52,3466,-1,1.4,0.0,1.0,2.210616903333851,-2.323981872735588,5.0,0.0
1733,5,53,1868,-1,0.65,0.65,1.0,-0.21863244098906345,-0.218632440989061,2.0,2.0
1734,5,54,2141,-1,0.65,0.0,1.0,-0.21863244098906345,-2.323981872735588,2.0,0.0
1735,5,55,1801,1,0.5,0.65,1.0,-0.7044823098536466,-0.218632440989061,0.0,2.0
1736,5,56,4713,1,0.95,0.65,1.0,0.7530672967401023,-0.218632440989061,5.0,2.0
1737,5,57,1717,-1,1.1,0.2,1.0,1.2389171656046858,-1.6761820475828109,5.0,0.0
1738,5,58,1870,-1,0.65,0.8,1.0,-0.21863244098906345,0.2672174278755223,2.0,3.0
1739,5,59,1629,-1,1.1,0.5,1.0,1.2389171656046858,-0.7044823098536442,5.0,0.0
1740,5,60,2029,1,0.5,0.8,1.0,-0.7044823098536466,0.2672174278755223,0.0,3.0
1741,5,61,3458,1,0.95,1.1,1.0,0.7530672967401023,1.2389171656046887,5.0,5.0
1742,5,62,2113,1,0.95,0.8,1.0,0.7530672967401023,0.2672174278755223,5.0,3.0
1743,5,63,2422,1,0.65,0.8,1.0,-0.21863244098906345,0.2672174278755223,2.0,3.0
1744,5,64,2205,-1,0.65,1.1,1.0,-0.21863244098906345,1.2389171656046887,2.0,5.0
1745,5,65,2222,-1,0.8,0.65,1.0,0.2672174278755196,-0.218632440989061,3.0,2.0
1746,5,66,3793,1,0.5,0.65,1.0,-0.7044823098536466,-0.218632440989061,0.0,2.0
1747,5,67,2187,1,0.8,1.1,1.0,0.2672174278755196,1.2389171656046887,3.0,5.0
1748,5,68,2330,-1,0.95,0.35,1.0,0.7530672967401023,-1.1903321787182275,5.0,0.0
1749,5,69,3852,1,0.95,0.65,1.0,0.7530672967401023,-0.218632440989061,5.0,2.0
1750,5,70,3695,-1,0.65,0.95,1.0,-0.21863244098906345,0.7530672967401052,2.0,5.0
1751,5,71,3260,-1,0.8,0.8,1.0,0.2672174278755196,0.2672174278755223,3.0,3.0
1752,5,72,24903,-1,0.2,0.8,1.0,-1.6761820475828124,0.2672174278755223,0.0,3.0
1753,5,73,4399,1,0.65,0.8,1.0,-0.21863244098906345,0.2672174278755223,2.0,3.0
1754,5,74,3612,1,0.0,0.5,1.0,-2.32398187273559,-0.7044823098536442,0.0,0.0
1755,5,75,2359,1,0.8,0.95,1.0,0.2672174278755196,0.7530672967401052,3.0,5.0
1756,5,76,4328,1,0.8,1.1,1.0,0.2672174278755196,1.2389171656046887,3.0,5.0
1757,5,77,1866,1,0.5,0.5,1.0,-0.7044823098536466,-0.7044823098536442,0.0,0.0
1758,5,78,2742,-1,1.25,1.1,1.0,1.7247670344692685,1.2389171656046887,5.0,5.0
1759,5,79,2290,1,0.95,0.5,1.0,0.7530672967401023,-0.7044823098536442,5.0,0.0
1760,5,80,2777,1,0.5,0.0,2.0,-0.7044823098536466,-2.323981872735588,0.0,0.0
1761,5,81,1763,-1,0.0,1.1,2.0,-2.32398187273559,1.2389171656046887,0.0,5.0
1762,5,82,2346,-1,0.65,0.8,2.0,-0.21863244098906345,0.2672174278755223,2.0,3.0
1763,5,83,1407,1,0.65,0.5,2.0,-0.21863244098906345,-0.7044823098536442,2.0,0.0
1764,5,84,1645,1,1.25,0.8,2.0,1.7247670344692685,0.2672174278755223,5.0,3.0
1765,5,85,2029,1,0.65,0.5,2.0,-0.21863244098906345,-0.7044823098536442,2.0,0.0
1766,5,86,1395,1,0.5,0.0,2.0,-0.7044823098536466,-2.323981872735588,0.0,0.0
1767,5,87,1998,-1,0.65,1.1,2.0,-0.21863244098906345,1.2389171656046887,2.0,5.0
1768,5,88,2131,1,0.8,0.65,2.0,0.2672174278755196,-0.218632440989061,3.0,2.0
1769,5,89,2170,-1,0.35,0.65,2.0,-1.1903321787182297,-0.218632440989061,0.0,2.0
1770,5,90,2591,-1,0.95,0.95,2.0,0.7530672967401023,0.7530672967401052,5.0,5.0
1771,5,91,2569,-1,0.2,1.1,2.0,-1.6761820475828124,1.2389171656046887,0.0,5.0
1772,5,92,2201,1,0.8,0.95,2.0,0.2672174278755196,0.7530672967401052,3.0,5.0
1773,5,93,3203,-1,0.2,0.35,2.0,-1.6761820475828124,-1.1903321787182275,0.0,0.0
1774,5,94,1679,1,0.8,0.95,2.0,0.2672174278755196,0.7530672967401052,3.0,5.0
1775,5,95,11481,-1,0.8,0.65,2.0,0.2672174278755196,-0.218632440989061,3.0,2.0
1776,5,96,2299,-1,0.95,0.65,2.0,0.7530672967401023,-0.218632440989061,5.0,2.0
