parcode,trial,rt,choice,item_left,item_right
1,40,2009,-1,1.1,0.95
1,41,3371,-1,2.0,1.7
1,42,1700,1,1.1,2.3
1,43,7466,1,1.25,1.4
1,44,1889,1,2.0,2.3
1,45,2227,1,1.7,1.85
1,46,4259,-1,1.85,0.65
1,47,3505,-1,1.55,0.8
1,48,2548,-1,1.55,1.1
1,49,3226,1,1.1,2.0
1,50,4604,-1,1.85,1.1
1,51,6333,-1,0.95,2.0
1,52,5716,-1,0.95,0.8
1,53,3562,-1,2.0,1.1
1,54,2447,-1,1.85,1.1
1,55,2120,1,1.25,1.85
1,56,6932,1,2.0,2.0
1,57,4274,1,1.25,1.7
1,58,6854,-1,1.7,1.4
1,59,6698,-1,1.1,1.1
1,60,2913,-1,1.1,0.95
1,61,4513,-1,1.7,1.55
1,62,2110,1,1.85,2.0
1,63,3385,-1,1.7,1.4
1,64,2456,1,1.4,2.0
1,65,2136,-1,1.85,1.7
1,66,7010,1,1.1,1.55
1,67,4784,-1,0.95,0.65
1,68,2697,1,1.1,1.55
1,69,4654,1,1.25,1.55
1,70,1916,1,1.55,2.3
1,71,2033,-1,1.7,1.25
1,72,1441,1,0.95,1.85
1,73,3579,1,0.65,1.25
1,74,7377,1,1.7,2.0
1,75,2921,-1,2.3,1.7
1,76,6398,-1,1.55,2.3
1,77,2919,1,0.65,1.7
1,78,4737,-1,1.55,1.7
1,79,3459,-1,1.7,1.1
1,120,3454,1,1.85,1.85
1,121,2478,1,1.7,1.55
1,122,1728,1,1.1,1.85
1,123,2014,-1,1.85,1.7
1,124,519,1,0.95,1.1
1,125,5492,1,1.1,1.25
1,126,3216,1,1.1,1.7
1,127,2185,-1,1.4,1.1
1,128,1467,-1,2.3,2.0
1,129,1707,-1,1.7,0.65
1,130,1472,1,1.1,1.55
1,131,2425,-1,2.0,1.1
1,132,5621,1,2.3,1.55
1,133,3216,1,0.95,1.55
1,134,3167,1,0.95,2.3
1,135,1939,-1,1.1,0.35
1,136,2066,-1,1.55,1.4
1,137,1561,1,1.25,2.0
1,138,2037,-1,1.85,1.55
1,139,3620,1,1.85,2.0
1,140,1235,1,0.35,1.85
1,141,3726,1,1.4,1.7
1,142,1764,1,1.25,1.1
1,143,4016,-1,2.0,1.4
1,144,2365,1,1.1,2.0
1,145,1583,1,1.55,1.55
1,146,5406,-1,1.55,1.25
1,147,2418,1,1.25,2.0
1,148,5198,-1,1.4,1.25
1,149,4101,1,1.1,1.85
1,150,3167,1,1.55,2.0
1,151,1675,-1,1.85,0.95
1,152,1655,1,1.7,2.0
1,153,1870,-1,1.55,1.1
1,154,2637,-1,1.55,1.1
1,155,3613,1,2.0,2.0
1,156,1854,-1,2.3,1.55
1,157,1999,-1,2.0,1.55
1,158,1979,-1,2.0,1.1
1,159,1987,-1,2.3,1.1
1,200,2166,-1,1.85,1.1
1,201,2263,-1,2.0,1.55
1,202,1491,1,0.8,1.55
1,203,1697,-1,1.1,1.25
1,204,2250,1,1.55,1.7
1,205,2017,-1,1.7,1.25
1,206,2098,1,1.7,1.85
1,207,1744,-1,2.0,1.25
1,208,2002,-1,1.85,1.85
1,209,2099,-1,2.0,1.1
1,210,4340,-1,1.4,1.7
1,211,2085,1,1.55,1.85
1,212,2755,1,1.55,2.0
1,213,2265,-1,2.0,1.85
1,214,1866,1,1.25,1.7
1,215,2166,-1,1.85,0.35
1,216,4828,1,1.25,1.1
1,217,2376,-1,2.0,0.95
1,218,2106,-1,2.0,1.85
1,219,2328,-1,1.85,1.25
1,220,4574,-1,2.0,1.7
1,221,1708,1,1.1,1.4
1,222,1739,1,1.1,1.85
1,223,1466,1,0.35,1.1
1,224,4432,-1,1.7,2.3
1,225,1759,1,1.1,2.0
1,226,1533,1,1.1,2.0
1,227,1556,-1,1.25,0.65
1,228,1545,-1,1.55,1.55
1,229,1291,1,1.7,2.0
1,230,1544,1,1.4,1.55
1,231,4190,1,0.65,0.95
1,232,1712,1,0.65,1.85
1,233,2958,1,1.55,0.95
1,234,1618,-1,2.3,0.95
1,235,1474,-1,2.0,1.7
1,236,1715,-1,2.0,1.25
1,237,1819,1,1.1,1.1
1,238,1454,1,0.95,1.1
1,239,3480,-1,0.8,0.95
2,40,3113,1,0.5,0.8
2,41,4273,1,0.05,0.5
2,42,2400,-1,0.5,0.2
2,43,2710,1,0.35,0.5
2,44,3446,-1,0.5,0.2
2,45,3993,-1,0.65,0.5
2,46,2389,-1,0.65,0.05
2,47,1404,-1,0.2,0.0
2,48,3249,1,0.05,0.2
2,49,1822,-1,0.35,0.0
2,50,1994,-1,0.2,0.0
2,51,2700,-1,0.65,0.2
2,52,1886,-1,0.5,0.0
2,53,3326,1,0.65,0.65
2,54,3299,1,0.2,0.8
2,55,2521,1,0.0,0.65
2,56,2952,-1,0.05,0.5
2,57,2415,-1,0.35,0.2
2,58,3498,1,0.2,0.2
2,59,2270,1,0.0,0.2
2,60,2513,1,0.35,0.5
2,61,2738,1,0.65,0.35
2,62,3314,-1,0.35,0.5
2,63,3086,1,0.05,0.2
2,64,2393,1,0.5,0.5
2,65,2560,1,0.05,0.2
2,66,3130,-1,0.65,0.35
2,67,4404,-1,0.65,0.5
2,68,1777,-1,0.65,0.2
2,69,2386,-1,0.5,0.35
2,70,2762,-1,0.5,0.35
2,71,1868,-1,0.65,0.2
2,72,2631,-1,0.65,0.65
2,73,3073,-1,0.65,0.5
2,74,2059,1,0.0,0.35
2,75,1611,1,0.2,0.65
2,76,1721,-1,0.5,0.0
2,77,2535,1,0.2,0.0
2,78,2177,1,0.65,0.5
2,79,2577,1,0.0,0.65
2,120,2362,1,0.2,0.65
2,121,1504,1,0.0,0.2
2,122,1769,-1,0.5,0.05
2,123,1998,1,0.35,0.05
2,124,1194,1,0.35,0.5
2,125,1135,1,0.05,0.65
2,126,1716,-1,0.65,0.5
2,127,1320,-1,0.5,0.65
2,128,1241,1,0.2,0.5
2,129,1278,1,0.8,0.5
2,130,1160,-1,0.35,0.2
2,131,1596,-1,0.2,0.35
2,132,1158,-1,0.65,0.2
2,133,1504,1,0.5,0.5
2,134,1069,1,0.0,0.5
2,135,1009,1,0.2,0.65
2,136,1124,1,0.65,0.65
2,137,1174,-1,0.5,0.2
2,138,1020,-1,0.65,0.0
2,139,1150,1,0.0,0.35
2,140,1254,-1,0.65,0.5
2,141,1898,-1,0.5,0.0
2,142,1184,1,0.2,0.35
2,143,1012,-1,0.8,0.0
2,144,2056,-1,0.35,0.65
2,145,1025,-1,0.2,0.0
2,146,1123,1,0.35,0.5
2,147,1224,1,0.0,0.2
2,148,1927,-1,0.5,0.2
2,149,1103,-1,0.8,0.5
2,150,1177,1,0.0,0.5
2,151,1173,1,0.5,0.65
2,152,1127,1,0.35,0.35
2,153,1540,1,0.2,0.05
2,154,1574,1,0.35,0.5
2,155,1212,-1,0.2,0.05
2,156,1247,1,0.2,0.35
2,157,1096,1,0.2,0.65
2,158,1163,-1,0.65,0.2
2,159,1068,-1,0.35,0.0
2,200,1829,1,0.5,0.8
2,201,1958,1,0.05,0.5
2,202,1335,-1,0.5,0.2
2,203,1560,-1,0.35,0.5
2,204,1322,-1,0.5,0.2
2,205,1545,-1,0.65,0.5
2,206,1385,-1,0.65,0.05
2,207,2884,-1,0.2,0.0
2,208,1358,1,0.05,0.2
2,209,1663,-1,0.35,0.0
2,210,1382,-1,0.2,0.0
2,211,3400,-1,0.65,0.2
2,212,1058,-1,0.5,0.0
2,213,882,1,0.65,0.65
2,214,1057,1,0.2,0.8
2,215,1229,1,0.0,0.65
2,216,1375,-1,0.05,0.5
2,217,819,-1,0.35,0.2
2,218,1925,1,0.2,0.2
2,219,1062,1,0.0,0.2
2,220,1320,1,0.35,0.5
2,221,1068,1,0.65,0.35
2,222,1506,-1,0.35,0.5
2,223,883,1,0.05,0.2
2,224,959,1,0.5,0.5
2,225,1317,1,0.05,0.2
2,226,1176,-1,0.65,0.35
2,227,1196,-1,0.65,0.5
2,228,1045,-1,0.65,0.2
2,229,1060,-1,0.5,0.35
2,230,1112,-1,0.5,0.35
2,231,1471,-1,0.65,0.2
2,232,1188,-1,0.65,0.65
2,233,1411,-1,0.65,0.5
2,234,1345,1,0.0,0.35
2,235,992,1,0.2,0.65
2,236,816,-1,0.5,0.0
2,237,1740,1,0.2,0.0
2,238,1032,1,0.65,0.5
2,239,1124,1,0.0,0.65
3,40,4138,-1,0.95,0.0
3,41,1615,-1,1.1,0.0
3,42,1521,-1,0.95,0.5
3,43,1833,-1,2.3,0.0
3,44,1921,1,0.5,2.6
3,45,1472,-1,2.0,0.05
3,46,3630,-1,1.1,0.2
3,47,2730,-1,1.25,0.35
3,48,5770,-1,2.75,2.15
3,49,2833,-1,0.05,0.2
3,50,1616,-1,0.65,0.0
3,51,1776,1,0.0,1.4
3,52,1554,1,0.2,1.95
3,53,2881,-1,0.0,0.0
3,54,2592,-1,0.65,0.0
3,55,1966,1,0.95,2.3
3,56,4961,1,1.25,0.35
3,57,4289,1,0.0,0.0
3,58,2382,1,2.0,3.0
3,59,1627,-1,3.0,0.0
3,60,1506,1,0.0,2.0
3,61,3071,1,0.0,2.75
3,62,1683,1,0.5,2.9
3,63,1869,-1,2.3,0.95
3,64,1236,-1,0.35,0.05
3,65,5758,1,3.0,2.3
3,66,3641,-1,1.1,1.25
3,67,1984,-1,0.0,0.0
3,68,2387,1,0.35,3.0
3,69,1672,1,0.95,1.95
3,70,3178,-1,0.35,1.1
3,71,4034,-1,1.7,1.25
3,72,2266,1,0.2,1.25
3,73,9110,1,2.75,2.15
3,74,1914,-1,0.95,0.65
3,75,2310,1,2.6,2.0
3,76,3482,-1,0.35,0.5
3,77,2185,1,0.0,2.75
3,78,1643,1,0.5,0.65
3,79,6848,1,1.1,2.3
3,120,3014,-1,1.95,0.95
3,121,1248,-1,1.95,0.2
3,122,1962,-1,2.0,0.0
3,123,1814,1,0.35,2.85
3,124,2794,1,0.0,0.0
3,125,4583,-1,0.35,0.5
3,126,5363,1,0.2,0.2
3,127,3832,1,0.35,1.25
3,128,1041,-1,2.15,0.0
3,129,2045,1,0.05,2.75
3,130,1479,-1,2.6,0.5
3,131,1750,-1,0.35,1.25
3,132,2726,-1,2.9,1.1
3,133,2387,1,0.2,0.05
3,134,1629,1,0.5,2.6
3,135,3360,-1,2.75,0.0
3,136,1625,-1,2.0,2.6
3,137,1991,1,0.0,0.65
3,138,5695,1,0.0,0.0
3,139,1470,1,0.2,1.1
3,140,1108,1,0.0,2.3
3,141,1263,1,0.0,0.5
3,142,1223,1,0.65,2.3
3,143,944,1,0.0,2.15
3,144,966,-1,3.0,0.35
3,145,1471,-1,2.9,0.5
3,146,1325,-1,2.3,0.95
3,147,2047,-1,0.5,1.7
3,148,1318,1,0.0,0.65
3,149,1410,-1,2.6,2.75
3,150,1109,-1,1.1,0.65
3,151,2158,1,0.0,0.35
3,152,3687,-1,1.25,1.7
3,153,2117,-1,1.1,1.4
3,154,1499,-1,2.15,2.75
3,155,871,1,1.25,2.15
3,156,1230,-1,2.15,0.5
3,157,1466,-1,1.25,0.2
3,158,1764,1,2.3,2.85
3,159,2222,1,0.0,0.35
3,200,1351,-1,0.35,0.0
3,201,1418,1,0.5,0.95
3,202,1152,1,0.0,1.1
3,203,2764,1,1.25,1.1
3,204,2555,1,2.75,2.6
3,205,1966,1,0.0,3.0
3,206,1839,1,0.65,1.1
3,207,1619,-1,2.15,1.25
3,208,4705,1,2.3,3.0
3,209,1404,-1,0.65,0.5
3,210,2197,-1,2.3,0.0
3,211,2248,-1,2.85,2.3
3,212,2783,-1,2.3,1.1
3,213,1276,1,0.5,0.35
3,214,1925,-1,0.35,0.0
3,215,1836,-1,3.0,2.0
3,216,2134,-1,2.3,0.65
3,217,1352,1,0.0,2.15
3,218,1285,-1,2.85,0.35
3,219,1344,1,0.0,0.95
3,220,1834,1,1.7,0.5
3,221,2169,1,1.1,0.35
3,222,1192,-1,2.15,0.0
3,223,1448,1,1.1,2.9
3,224,1618,1,0.05,2.0
3,225,2337,-1,0.2,0.2
3,226,1817,-1,2.75,0.0
3,227,953,-1,2.75,0.05
3,228,1666,1,0.65,0.95
3,229,1120,-1,2.6,0.5
3,230,1819,1,0.95,2.3
3,231,1672,1,1.4,1.1
3,232,4290,-1,0.5,0.0
3,233,1477,1,2.15,2.75
3,234,1372,1,0.0,2.3
3,235,1507,1,0.5,2.15
3,236,2567,-1,1.4,0.0
3,237,1513,1,0.0,0.0
3,238,1648,1,0.05,0.35
3,239,1125,1,0.5,0.35
4,40,3916,-1,0.0,0.0
4,41,2427,-1,2.45,0.65
4,42,3746,1,0.05,0.35
4,43,3621,-1,1.1,0.35
4,44,2167,1,1.55,0.95
4,45,2378,-1,2.45,1.55
4,46,3483,-1,1.1,0.65
4,47,2759,1,0.0,0.95
4,48,11236,1,0.05,0.65
4,49,2620,1,0.05,0.95
4,50,5035,-1,0.95,1.1
4,51,6939,-1,1.4,1.25
4,52,2210,1,0.0,0.95
4,53,1773,1,0.05,1.4
4,54,1790,1,0.0,0.65
4,55,4010,1,1.55,0.2
4,56,2599,1,0.0,1.25
4,57,8879,-1,2.45,0.65
4,58,2397,-1,1.4,0.65
4,59,2316,-1,0.65,0.05
4,60,1897,-1,1.7,0.65
4,61,7320,1,0.5,0.65
4,62,3510,-1,0.05,0.0
4,63,2683,1,0.05,1.55
4,64,1943,1,0.05,0.65
4,65,1684,-1,0.65,0.2
4,66,3811,1,0.95,1.4
4,67,1739,1,0.5,1.25
4,68,2891,-1,0.8,0.35
4,69,4217,1,0.65,2.3
4,70,6103,1,0.95,0.95
4,71,5579,-1,0.8,0.8
4,72,4646,1,0.8,0.35
4,73,4253,1,0.05,0.95
4,74,2616,1,1.25,0.95
4,75,5075,-1,0.95,0.8
4,76,2093,-1,0.65,0.8
4,77,4899,1,1.1,1.55
4,78,4563,1,1.1,0.95
4,79,2354,-1,0.95,0.0
4,120,3952,1,0.0,0.05
4,121,1354,-1,1.25,0.5
4,122,1708,1,0.95,1.1
4,123,1662,-1,0.95,1.25
4,124,3300,-1,1.4,0.95
4,125,2187,1,0.35,1.55
4,126,1537,-1,0.95,0.0
4,127,4601,1,0.05,0.95
4,128,1768,-1,0.0,0.05
4,129,2069,-1,1.7,1.4
4,130,3884,1,0.0,0.0
4,131,1877,1,0.05,1.1
4,132,1563,-1,1.4,0.0
4,133,1706,1,0.0,1.1
4,134,4268,-1,0.95,0.95
4,135,1762,1,0.65,1.7
4,136,1773,1,0.35,1.1
4,137,7000,-1,0.95,0.05
4,138,3982,-1,0.65,0.0
4,139,1869,-1,0.95,0.0
4,140,2105,-1,0.95,0.0
4,141,1507,-1,0.95,0.05
4,142,2742,1,0.35,0.8
4,143,2430,1,0.05,0.65
4,144,2550,1,0.0,0.5
4,145,2499,1,1.1,0.5
4,146,3249,-1,0.95,1.1
4,147,2161,1,0.0,1.55
4,148,2270,1,0.8,0.95
4,149,2322,-1,0.65,0.0
4,150,1885,1,0.0,0.05
4,151,2328,1,0.05,0.95
4,152,1789,1,0.0,0.95
4,153,3082,1,1.1,0.95
4,154,2710,1,0.95,2.3
4,155,3318,-1,2.45,1.1
4,156,1596,-1,1.55,0.05
4,157,2020,1,0.95,1.55
4,158,1498,-1,1.25,0.0
4,159,3854,1,0.35,0.8
4,200,3897,-1,0.95,0.8
4,201,1515,-1,0.95,1.55
4,202,2095,1,0.8,0.65
4,203,1847,-1,1.55,0.95
4,204,3787,1,0.65,0.5
4,205,3488,-1,1.55,1.1
4,206,4082,1,0.8,0.95
4,207,2037,1,0.2,0.65
4,208,1874,1,0.8,0.8
4,209,1663,1,0.0,1.4
4,210,5986,-1,0.8,0.35
4,211,7087,1,1.25,1.4
4,212,1695,1,0.0,0.65
4,213,1739,1,0.65,1.4
4,214,3157,-1,2.3,0.65
4,215,1509,-1,1.1,0.0
4,216,4811,1,0.65,2.45
4,217,1924,-1,0.95,0.05
4,218,1294,-1,0.65,0.05
4,219,1835,-1,0.2,1.55
4,220,2191,1,0.0,0.95
4,221,1573,1,1.4,1.7
4,222,2013,-1,2.3,0.95
4,223,1253,-1,1.55,0.35
4,224,2332,-1,0.5,0.0
4,225,3469,1,1.55,2.45
4,226,7005,-1,0.35,0.8
4,227,4749,-1,0.95,0.05
4,228,2096,1,1.1,2.45
4,229,1272,-1,1.55,0.0
4,230,3300,-1,0.35,0.05
4,231,1336,-1,1.1,0.05
4,232,1260,-1,1.4,0.05
4,233,1340,-1,0.05,0.0
4,234,3912,-1,0.65,0.05
4,235,1344,-1,0.05,0.0
4,236,3005,1,0.65,1.1
4,237,1676,-1,1.1,0.95
4,238,2666,-1,0.5,1.1
4,239,1883,1,0.65,2.45
5,40,1944,-1,0.05,0.0
5,41,3591,1,0.0,0.0
5,42,1669,-1,0.8,0.65
5,43,1473,-1,0.6,0.0
5,44,1379,1,0.0,0.65
5,45,2554,1,0.0,0.0
5,46,1539,-1,0.5,0.0
5,47,1370,1,0.0,0.0
5,48,1375,1,0.0,0.95
5,49,3063,1,0.05,0.2
5,50,1369,1,0.0,0.05
5,51,1598,1,0.0,0.95
5,52,1833,-1,0.0,0.0
5,53,1252,1,0.35,0.8
5,54,1773,-1,0.65,0.0
5,55,1471,1,0.0,0.8
5,56,3207,-1,0.5,0.0
5,57,1903,-1,0.0,0.0
5,58,2550,-1,1.1,0.05
5,59,1988,-1,0.2,0.0
5,60,1531,-1,1.1,0.0
5,61,4111,1,0.5,0.65
5,62,5355,1,0.0,0.0
5,63,1387,-1,1.1,0.0
5,64,1688,-1,0.6,0.35
5,65,3569,1,0.0,0.05
5,66,1619,1,0.5,1.1
5,67,4123,1,0.0,0.0
5,68,1834,1,0.0,0.0
5,69,1416,1,0.05,0.2
5,70,1288,1,0.0,0.8
5,71,1361,1,0.0,1.1
5,72,1465,1,0.05,0.0
5,73,1650,-1,0.05,0.0
5,74,2292,1,0.0,0.0
5,75,1348,1,0.0,0.5
5,76,1407,-1,0.8,0.5
5,77,1486,1,0.0,0.8
5,78,1610,1,0.5,0.95
5,79,2680,-1,0.0,0.0
5,120,2420,-1,0.0,0.0
5,121,2161,-1,0.0,0.0
5,122,1342,-1,0.8,0.0
5,123,1253,1,0.0,0.0
5,124,1262,-1,0.8,0.0
5,125,1895,1,0.0,0.0
5,126,2956,-1,0.65,0.5
5,127,1518,-1,0.8,0.0
5,128,1020,1,0.0,1.1
5,129,1407,-1,0.0,0.0
5,130,2155,-1,0.5,0.0
5,131,1575,1,0.0,0.65
5,132,1830,-1,0.0,0.0
5,133,1061,-1,0.0,0.0
5,134,1095,1,0.5,0.8
5,135,1536,1,0.0,0.0
5,136,1046,-1,1.1,0.0
5,137,1951,-1,0.8,0.35
5,138,1306,-1,0.0,0.0
5,139,1983,1,0.0,0.2
5,140,1847,-1,0.0,0.2
5,141,1761,1,0.05,0.95
5,142,2454,-1,0.05,0.0
5,143,2720,1,0.35,0.0
5,144,1076,-1,0.2,0.05
5,145,1871,1,0.0,0.8
5,146,926,-1,0.65,0.05
5,147,1366,-1,0.05,0.0
5,148,1282,1,0.0,1.1
5,149,1485,1,0.0,0.05
5,150,2086,-1,0.8,0.05
5,151,1351,-1,0.65,0.0
5,152,1516,-1,0.0,0.5
5,153,1085,1,0.0,0.0
5,154,1580,-1,0.35,0.0
5,155,1235,-1,0.8,0.0
5,156,1850,1,0.8,0.8
5,157,1398,1,0.05,1.1
5,158,1486,1,0.0,0.5
5,159,4333,-1,0.0,0.0
5,200,2015,-1,0.5,0.0
5,201,1236,-1,0.95,0.0
5,202,1346,1,0.0,0.0
5,203,1235,1,0.65,0.8
5,204,1382,1,0.0,0.0
5,205,1491,1,0.0,0.0
5,206,2413,-1,0.65,0.0
5,207,1509,-1,0.8,0.0
5,208,1114,1,0.0,0.5
5,209,1071,1,0.0,0.6
5,210,1696,-1,0.0,0.0
5,211,2318,1,0.2,0.05
5,212,1504,-1,1.1,0.0
5,213,1920,-1,1.1,0.5
5,214,1381,-1,0.95,0.0
5,215,4618,1,0.0,0.05
5,216,1067,1,0.35,0.6
5,217,1600,-1,0.0,0.0
5,218,903,1,0.0,0.0
5,219,1515,1,0.0,0.05
5,220,1737,-1,0.2,0.0
5,221,943,1,0.0,1.1
5,222,1317,1,0.05,0.65
5,223,1197,1,0.0,0.8
5,224,2430,1,0.0,0.0
5,225,1257,-1,0.8,0.0
5,226,2005,1,0.0,0.35
5,227,1129,1,0.0,0.8
5,228,1162,1,0.0,0.65
5,229,1801,-1,0.0,0.0
5,230,2430,1,0.0,0.0
5,231,1379,1,0.05,0.8
5,232,1529,-1,0.95,0.5
5,233,2327,-1,0.0,0.0
5,234,1531,-1,0.0,0.35
5,235,1360,-1,0.0,0.05
5,236,1619,-1,0.05,0.0
5,237,1415,-1,0.0,0.0
5,238,1552,-1,0.8,0.8
5,239,1627,-1,0.95,0.05
8,40,2028,-1,1.4,0.95
8,41,2197,1,0.5,0.65
8,42,1864,1,0.5,0.8
8,43,2066,1,0.35,0.65
8,44,1702,1,0.35,0.95
8,45,2343,1,0.2,0.95
8,46,3469,-1,1.1,0.8
8,47,4105,-1,0.8,0.5
8,48,2482,1,0.0,0.5
8,49,3178,1,0.35,0.95
8,50,1763,-1,1.1,0.65
8,51,2708,1,0.95,0.95
8,52,3466,-1,1.4,0.0
8,53,1868,-1,0.65,0.65
8,54,2141,-1,0.65,0.0
8,55,1801,1,0.5,0.65
8,56,4713,1,0.95,0.65
8,57,1717,-1,1.1,0.2
8,58,1870,-1,0.65,0.8
8,59,1629,-1,1.1,0.5
8,60,2029,1,0.5,0.8
8,61,3458,1,0.95,1.1
8,62,2113,1,0.95,0.8
8,63,2422,1,0.65,0.8
8,64,2205,-1,0.65,1.1
8,65,2222,-1,0.8,0.65
8,66,3793,1,0.5,0.65
8,67,2187,1,0.8,1.1
8,68,2330,-1,0.95,0.35
8,69,3852,1,0.95,0.65
8,70,3695,-1,0.65,0.95
8,71,3260,-1,0.8,0.8
8,72,24903,-1,0.2,0.8
8,73,4399,1,0.65,0.8
8,74,3612,1,0.0,0.5
8,75,2359,1,0.8,0.95
8,76,4328,1,0.8,1.1
8,77,1866,1,0.5,0.5
8,78,2742,-1,1.25,1.1
8,79,2290,1,0.95,0.5
8,120,4077,1,0.95,0.95
8,121,1560,-1,1.1,0.95
8,122,2605,-1,0.5,0.0
8,123,1836,1,0.2,0.35
8,124,1968,-1,1.1,0.8
8,125,3258,-1,0.65,0.5
8,126,3518,-1,0.95,0.8
8,127,1889,-1,0.95,0.35
8,128,1837,-1,0.65,0.5
8,129,2012,1,0.8,0.65
8,130,2183,-1,0.5,0.0
8,131,1414,1,0.35,1.1
8,132,1778,1,0.0,1.1
8,133,2422,-1,1.25,0.8
8,134,1579,-1,1.1,0.95
8,135,2238,-1,0.5,0.95
8,136,1383,1,0.8,0.95
8,137,2886,-1,0.5,0.8
8,138,1683,1,0.95,0.65
8,139,3159,-1,0.65,0.35
8,140,1700,1,0.35,0.5
8,141,1632,-1,0.8,0.65
8,142,3465,-1,0.8,0.5
8,143,2207,-1,0.95,0.35
8,144,2594,1,0.8,0.8
8,145,1828,-1,1.1,0.5
8,146,1993,-1,0.8,0.95
8,147,2343,-1,0.65,0.65
8,148,1632,1,0.65,1.1
8,149,1456,-1,0.65,0.95
8,150,2478,-1,0.65,0.5
8,151,1991,1,0.2,1.1
8,152,1905,1,0.35,0.65
8,153,2195,-1,1.1,0.65
8,154,1754,-1,0.95,0.0
8,155,2658,1,0.65,0.8
8,156,1755,1,0.95,1.4
8,157,2863,1,0.95,1.1
8,158,1514,-1,0.65,0.95
8,159,2971,1,0.5,0.8
8,200,1826,-1,1.1,0.95
8,201,1908,-1,1.1,0.8
8,202,2450,-1,0.0,0.65
8,203,2532,-1,0.8,0.5
8,204,1653,-1,0.5,0.35
8,205,2581,-1,0.5,0.8
8,206,1539,-1,1.1,0.95
8,207,1602,1,0.65,0.65
8,208,2941,1,1.1,0.65
8,209,2425,-1,0.65,0.65
8,210,1935,-1,0.95,0.35
8,211,1552,1,0.65,0.8
8,212,2729,1,0.95,1.1
8,213,1878,1,0.8,0.65
8,214,1452,1,0.5,1.1
8,215,1693,1,0.8,0.5
8,216,1529,1,0.8,0.2
8,217,2201,1,0.8,0.8
8,218,3317,-1,0.35,0.2
8,219,1205,-1,1.1,0.0
8,220,1749,1,0.8,0.5
8,221,1554,1,1.1,1.25
8,222,1827,-1,0.95,0.2
8,223,1525,1,0.65,1.1
8,224,1791,1,0.35,0.95
8,225,1359,-1,0.65,0.35
8,226,2219,-1,0.8,0.65
8,227,1546,1,0.35,0.65
8,228,1451,1,0.0,0.95
8,229,1997,1,0.95,0.8
8,230,1996,-1,0.65,0.35
8,231,1720,1,0.0,1.4
8,232,1503,-1,0.5,0.5
8,233,2481,1,0.8,0.8
8,234,1808,1,0.8,1.25
8,235,1768,1,0.5,1.1
8,236,2272,1,0.35,0.95
8,237,1588,-1,1.1,0.35
8,238,1521,1,0.95,1.1
8,239,1654,1,0.8,1.1
9,40,1928,-1,0.95,1.4
9,41,4194,1,0.65,0.8
9,42,2641,1,0.8,0.8
9,43,2684,-1,0.95,0.65
9,44,1506,1,0.65,0.95
9,45,2147,-1,1.4,0.65
9,46,2007,-1,0.95,0.0
9,47,1439,-1,0.95,0.8
9,48,2377,-1,0.65,0.95
9,49,1529,-1,0.8,0.5
9,50,1766,-1,0.65,0.65
9,51,4347,-1,0.65,0.65
9,52,1309,-1,0.95,0.95
9,53,1520,-1,0.95,0.8
9,54,2229,1,0.65,0.65
9,55,4567,1,0.95,0.5
9,56,1624,1,0.95,0.95
9,57,2488,1,0.95,1.1
9,58,1411,-1,0.65,0.8
9,59,1473,1,0.0,0.95
9,60,2715,1,0.65,0.35
9,61,1698,-1,0.65,0.95
9,62,1593,-1,0.95,0.95
9,63,2855,1,0.8,0.8
9,64,5320,-1,0.5,0.8
9,65,1752,-1,0.65,0.8
9,66,1509,1,0.95,0.8
9,67,1701,1,0.5,1.4
9,68,1350,1,0.95,0.8
9,69,1891,-1,0.65,0.95
9,70,2255,-1,1.1,0.65
9,71,9549,-1,0.8,0.8
9,72,759,1,0.65,0.65
9,73,1619,1,0.8,0.95
9,74,1815,1,0.35,1.25
9,75,2159,-1,0.0,0.8
9,76,1611,1,0.8,0.95
9,77,4682,1,0.8,0.95
9,78,1289,1,0.8,0.65
9,79,2833,1,0.65,0.95
9,120,1394,1,0.0,0.5
9,121,1906,1,0.8,0.65
9,122,2107,-1,0.95,0.8
9,123,3027,1,0.95,1.4
9,124,2600,1,0.95,0.8
9,125,1417,-1,0.95,0.65
9,126,2295,1,0.65,0.95
9,127,3582,-1,0.65,0.95
9,128,1190,1,0.8,0.95
9,129,1701,-1,0.65,1.4
9,130,3387,-1,0.65,0.65
9,131,1950,-1,0.95,0.95
9,132,4977,-1,0.95,0.8
9,133,1650,-1,0.95,0.35
9,134,1315,1,0.8,0.95
9,135,2396,-1,0.8,0.8
9,136,2956,-1,0.95,0.65
9,137,2401,-1,0.8,0.8
9,138,1843,1,1.4,0.95
9,139,971,-1,0.0,0.65
9,140,2911,1,0.8,0.5
9,141,1357,-1,0.8,0.95
9,142,2067,-1,0.65,0.65
9,143,2047,-1,1.1,0.95
9,144,3643,-1,0.5,0.95
9,145,2231,-1,0.8,0.65
9,146,2366,1,1.55,1.25
9,147,2632,1,0.8,0.95
9,148,1651,-1,0.65,0.8
9,149,1586,-1,0.35,0.65
9,150,1296,-1,0.95,0.95
9,151,1235,1,0.0,0.5
9,152,1516,1,0.65,1.55
9,153,2250,-1,0.95,0.65
9,154,2296,1,0.35,0.65
9,155,1628,-1,0.95,0.0
9,156,2304,-1,0.95,0.65
9,157,1846,1,0.95,0.95
9,158,1605,-1,0.95,0.0
9,159,1271,-1,1.4,0.5
9,200,2963,-1,0.95,0.8
9,201,2341,1,0.65,0.65
9,202,2313,1,0.8,0.0
9,203,1339,1,0.95,0.65
9,204,1323,-1,1.25,1.55
9,205,2284,1,0.95,0.65
9,206,1511,-1,1.4,0.95
9,207,1688,1,0.8,0.95
9,208,848,1,0.95,0.95
9,209,2451,1,0.8,0.95
9,210,1051,-1,0.5,0.0
9,211,1537,1,0.35,0.95
9,212,1026,-1,0.5,0.0
9,213,1821,1,0.65,1.1
9,214,1019,-1,0.65,0.0
9,215,1082,1,0.95,0.95
9,216,2864,1,0.95,0.65
9,217,2367,1,0.65,0.95
9,218,1091,-1,0.65,0.35
9,219,1598,1,0.8,0.65
9,220,1885,1,0.65,0.65
9,221,1530,-1,1.25,0.35
9,222,1104,-1,0.95,0.8
9,223,1021,-1,0.95,0.95
9,224,1850,-1,0.8,0.95
9,225,1320,1,0.65,0.65
9,226,904,1,0.0,0.95
9,227,1339,1,0.65,0.65
9,228,1143,-1,0.8,0.8
9,229,1422,-1,0.95,0.0
9,230,1125,1,0.95,0.95
9,231,1384,-1,0.95,0.8
9,232,1261,1,0.0,0.95
9,233,1501,-1,1.55,0.65
9,234,1148,1,0.65,0.95
9,235,1303,1,0.95,0.65
9,236,1263,1,0.5,0.8
9,237,1326,1,0.8,0.65
9,238,6668,-1,0.65,0.8
9,239,1010,1,0.0,0.95
10,0,2562,-1,0.95,0.95
10,1,3709,-1,2.45,1.1
10,2,3707,-1,1.1,1.1
10,3,1775,-1,1.4,0.95
10,4,2242,-1,1.1,0.35
10,5,7777,1,0.95,2.0
10,6,3068,1,1.1,0.95
10,7,4508,-1,1.55,1.1
10,8,3300,1,0.95,1.55
10,9,1901,1,0.95,1.1
10,10,2798,1,1.55,1.1
10,11,6463,1,0.5,0.95
10,12,2423,1,0.95,2.3
10,13,3995,-1,2.45,2.0
10,14,4172,1,0.95,1.1
10,15,2646,-1,1.1,0.65
10,16,3748,1,0.35,0.5
10,17,3971,-1,0.95,1.4
10,18,4791,-1,1.25,0.5
10,19,6822,1,1.55,1.85
10,20,7438,1,1.1,1.1
10,21,4818,-1,2.0,1.25
10,22,2526,-1,2.0,0.35
10,23,4766,-1,2.0,1.4
10,24,2008,1,2.0,1.1
10,25,2589,1,0.5,2.45
10,26,2672,1,2.0,2.45
10,27,3508,1,0.35,1.1
10,28,2744,-1,1.4,1.1
10,29,6724,-1,1.1,1.25
10,30,4206,1,0.5,0.95
10,31,3373,1,2.0,0.95
10,32,2463,-1,0.95,0.95
10,33,3506,1,1.1,0.95
10,34,2164,1,1.1,2.45
10,35,2248,-1,0.95,1.1
10,36,1490,1,1.25,1.1
10,37,2130,1,0.95,1.25
10,38,1253,-1,1.1,1.1
10,39,3991,1,0.95,1.1
10,80,2772,-1,2.45,1.1
10,81,2700,1,0.5,1.25
10,82,2661,-1,1.55,0.95
10,83,1749,1,0.95,1.4
10,84,2555,-1,1.1,0.95
10,85,2085,-1,1.1,1.25
10,86,2682,-1,1.4,2.0
10,87,3236,1,1.1,1.55
10,88,2828,1,0.95,0.95
10,89,2501,-1,2.0,0.5
10,90,2631,-1,1.1,0.95
10,91,4864,1,1.1,0.95
10,92,1410,-1,1.1,1.1
10,93,1475,1,0.8,1.1
10,94,4804,-1,2.0,1.1
10,95,1677,1,1.1,1.1
10,96,2396,1,1.1,2.3
10,97,2395,-1,1.1,0.95
10,98,2022,1,0.35,1.1
10,99,1751,1,0.35,2.0
10,100,2889,-1,2.0,0.8
10,101,1270,-1,1.25,2.0
10,102,4447,-1,0.95,0.65
10,103,2915,-1,1.25,0.95
10,104,9013,1,1.55,1.4
10,105,1853,1,1.1,2.45
10,106,3567,1,1.1,1.85
10,107,4428,-1,2.45,2.0
10,108,3230,1,1.1,1.55
10,109,4884,-1,1.1,2.0
10,110,2585,1,1.1,1.1
10,111,3986,1,1.1,1.1
10,112,2925,-1,0.5,0.35
10,113,2860,-1,1.55,0.65
10,114,2888,-1,1.4,0.65
10,115,3153,-1,0.95,1.1
10,116,3830,1,1.4,0.95
10,117,2264,1,0.65,1.1
10,118,3281,1,0.95,2.0
10,119,3370,-1,0.95,0.5
10,160,2827,1,1.1,1.4
10,161,3953,1,2.0,2.45
10,162,6634,-1,1.25,1.1
10,163,3319,1,1.1,2.45
10,164,1949,-1,1.1,0.95
10,165,2403,-1,1.55,1.1
10,166,1743,1,0.95,1.1
10,167,2682,1,0.65,0.95
10,168,2349,-1,1.1,1.1
10,169,2716,1,1.55,0.95
10,170,6127,-1,1.85,1.1
10,171,2647,-1,1.1,1.1
10,172,3192,1,0.95,0.95
10,173,2950,-1,2.45,0.5
10,174,1723,1,2.0,1.25
10,175,2383,-1,0.95,1.1
10,176,1962,1,0.8,2.0
10,177,3720,-1,0.95,1.55
10,178,3087,-1,1.85,1.55
10,179,1255,-1,2.3,1.1
10,180,3736,1,0.95,0.5
10,181,1760,-1,1.1,0.95
10,182,1405,-1,1.1,0.8
10,183,2316,-1,0.95,1.1
10,184,1680,1,1.1,0.95
10,185,3267,1,1.25,2.0
10,186,3536,1,1.4,1.55
10,187,1581,1,1.1,1.1
10,188,1304,1,0.95,1.1
10,189,2650,1,0.65,1.4
10,190,1761,1,1.1,2.0
10,191,2423,1,2.0,0.95
10,192,1690,1,0.65,1.55
10,193,2103,-1,2.45,1.1
10,194,1738,1,1.1,1.1
10,195,3921,-1,1.1,0.35
10,196,2330,-1,2.3,0.95
10,197,1808,1,0.5,2.0
10,198,1669,1,1.1,1.1
10,199,2295,-1,1.1,1.55
11,0,6280,-1,1.85,1.7
11,1,3262,-1,1.25,1.25
11,2,2781,1,2.75,1.25
11,3,4808,1,2.0,0.8
11,4,3763,-1,1.4,2.0
11,5,2120,1,0.8,1.85
11,6,4439,1,0.8,1.25
11,7,2881,1,1.4,2.15
11,8,8834,1,2.3,1.85
11,9,2776,-1,2.0,1.25
11,10,1966,1,1.25,2.0
11,11,2514,-1,0.95,2.45
11,12,10046,1,1.7,1.7
11,13,4799,1,1.7,2.3
11,14,2205,-1,1.7,0.95
11,15,1809,1,2.15,2.0
11,16,5917,1,2.15,1.85
11,17,5962,1,1.1,1.25
11,18,3225,-1,1.4,1.25
11,19,3906,-1,1.1,2.0
11,20,9244,1,2.75,2.0
11,21,3254,-1,0.8,0.8
11,22,7203,1,2.0,0.95
11,23,3248,-1,1.4,1.4
11,24,9608,1,2.3,1.25
11,25,2238,-1,2.6,0.95
11,26,2748,-1,2.15,2.0
11,27,3612,1,1.7,0.95
11,28,2269,-1,2.45,0.95
11,29,1844,-1,1.85,2.0
11,30,3228,1,1.25,0.95
11,31,2352,1,2.0,2.3
11,32,6776,-1,2.45,2.0
11,33,2230,1,1.85,2.45
11,34,2359,-1,1.25,2.15
11,35,1954,1,1.85,1.1
11,36,3237,1,0.95,2.15
11,37,1781,-1,1.85,1.25
11,38,4639,1,2.3,2.0
11,39,2979,-1,1.7,2.0
11,80,1878,1,2.0,2.3
11,81,1993,-1,1.25,1.25
11,82,4066,1,1.85,2.45
11,83,1666,-1,1.25,1.1
11,84,2165,1,0.8,0.95
11,85,1595,1,1.7,2.15
11,86,1735,-1,1.1,1.85
11,87,1822,1,0.95,2.45
11,88,2027,-1,2.0,2.75
11,89,2905,-1,1.25,2.45
11,90,1535,-1,2.0,2.15
11,91,1528,-1,2.0,1.4
11,92,1831,1,0.95,1.7
11,93,2177,1,1.25,2.0
11,94,2255,-1,2.15,1.85
11,95,1615,1,0.8,2.3
11,96,2366,1,2.15,1.25
11,97,1262,-1,2.0,2.15
11,98,1535,1,2.0,1.1
11,99,1314,1,1.25,1.85
11,100,4734,-1,0.95,1.4
11,101,4219,-1,1.7,1.7
11,102,2133,-1,1.85,2.3
11,103,3283,1,1.25,1.4
11,104,1390,1,2.0,2.15
11,105,1494,1,1.85,1.25
11,106,1043,-1,2.6,2.6
11,107,1583,-1,1.25,2.75
11,108,1951,1,2.15,0.95
11,109,1185,-1,0.8,2.0
11,110,1984,-1,2.0,0.95
11,111,1339,-1,2.3,2.0
11,112,1286,-1,2.3,0.8
11,113,1944,-1,1.7,1.85
11,114,1853,1,0.8,0.95
11,115,2109,-1,0.95,1.7
11,116,1583,1,2.6,0.8
11,117,1535,1,1.1,0.95
11,118,1668,1,2.15,1.4
11,119,1780,-1,1.85,1.4
11,160,2931,1,1.85,2.15
11,161,2067,-1,1.85,0.8
11,162,1560,1,0.8,0.8
11,163,2001,-1,2.3,2.0
11,164,1441,1,2.45,0.95
11,165,1422,1,2.0,1.85
11,166,3294,-1,0.95,0.8
11,167,1937,-1,2.15,0.95
11,168,1752,1,0.8,2.3
11,169,1688,-1,2.3,0.8
11,170,1085,1,0.95,2.0
11,171,1381,1,2.0,1.7
11,172,1506,-1,2.45,1.85
11,173,1745,-1,0.8,2.6
11,174,2935,-1,1.25,2.3
11,175,1693,-1,2.15,1.7
11,176,9412,-1,2.45,1.25
11,177,2314,-1,1.85,2.15
11,178,1464,1,2.6,2.6
11,179,2187,1,2.0,2.45
11,180,1468,-1,0.95,0.8
11,181,1348,1,1.25,1.25
11,182,1945,1,1.4,1.4
11,183,1382,1,0.95,2.6
11,184,1886,-1,1.25,0.8
11,185,3569,-1,2.0,2.3
11,186,3349,-1,0.95,2.15
11,187,1595,1,1.4,1.85
11,188,1380,1,1.25,1.25
11,189,1668,1,1.4,2.0
11,190,2449,-1,0.95,1.25
11,191,1612,1,2.15,2.0
11,192,1495,-1,2.45,1.85
11,193,1574,1,1.4,0.95
11,194,2403,-1,0.95,1.1
11,195,1463,-1,0.95,2.0
11,196,2565,1,2.0,1.4
11,197,1537,-1,2.3,1.7
11,198,2100,-1,2.0,1.25
11,199,1383,-1,1.25,1.85
12,0,4076,1,0.5,0.65
12,1,7342,-1,0.95,0.8
12,2,7926,1,1.1,1.55
12,3,7862,-1,1.1,0.5
12,4,9211,-1,1.4,0.65
12,5,6437,-1,0.65,0.5
12,6,8887,1,0.8,0.8
12,7,7906,-1,0.35,0.2
12,8,7682,-1,0.65,0.5
12,9,12700,1,0.5,0.35
12,10,10860,-1,1.55,1.1
12,11,5201,-1,1.1,0.5
12,12,6160,-1,0.5,0.65
12,13,5265,1,0.35,0.8
12,14,7706,-1,1.4,0.8
12,15,7950,-1,0.95,0.65
12,16,3178,1,0.2,0.8
12,17,5989,1,0.8,1.4
12,18,3409,1,0.65,0.65
12,19,2703,1,0.65,0.95
12,20,6270,1,1.4,1.55
12,21,3970,-1,0.5,0.35
12,22,8677,1,0.65,0.8
12,23,5384,-1,1.4,0.65
12,24,4131,-1,1.55,0.8
12,25,7368,1,0.5,0.95
12,26,3027,-1,0.95,0.35
12,27,1947,-1,0.8,0.5
12,28,3251,-1,0.8,0.35
12,29,5353,1,0.65,1.1
12,30,2235,1,0.5,1.55
12,31,3470,-1,1.25,0.95
12,32,6025,-1,1.55,0.35
12,33,1555,-1,0.8,0.65
12,34,4056,1,0.8,1.4
12,35,2030,1,0.05,0.8
12,36,3565,1,0.65,0.8
12,37,1937,1,0.35,0.5
12,38,4421,1,0.65,1.25
12,39,3242,1,0.35,0.65
12,80,1697,1,0.35,1.55
12,81,1908,-1,0.65,0.65
12,82,1797,-1,0.8,0.5
12,83,2048,-1,0.8,0.5
12,84,1799,1,0.65,1.4
12,85,2018,-1,1.25,0.65
12,86,2057,-1,1.1,0.95
12,87,2199,1,0.2,0.35
12,88,5826,1,0.5,0.65
12,89,4129,-1,0.65,0.65
12,90,1566,1,0.65,1.4
12,91,2613,1,0.65,0.8
12,92,1468,1,0.2,1.55
12,93,1699,-1,1.55,0.65
12,94,1608,1,0.5,0.65
12,95,1556,-1,0.8,0.2
12,96,1669,1,0.05,0.35
12,97,1331,1,0.95,1.25
12,98,3185,-1,0.8,0.05
12,99,1955,-1,1.1,0.65
12,100,2036,1,0.8,1.4
12,101,1657,-1,0.8,0.65
12,102,1579,1,0.5,1.1
12,103,2195,1,1.1,1.55
12,104,1662,1,0.35,1.55
12,105,1752,-1,0.95,0.8
12,106,1536,1,0.35,0.8
12,107,5328,1,0.8,0.95
12,108,6890,-1,0.65,0.95
12,109,4058,-1,1.4,0.8
12,110,2141,-1,0.65,0.35
12,111,1434,-1,0.8,0.35
12,112,3682,-1,0.65,0.5
12,113,886,1,0.8,0.95
12,114,1430,-1,0.65,0.2
12,115,2134,-1,0.95,0.65
12,116,1446,1,0.35,1.4
12,117,1959,-1,1.1,0.8
12,118,3418,-1,0.35,0.5
12,119,3483,-1,1.55,1.55
12,160,1629,1,0.8,0.95
12,161,1546,1,0.5,1.1
12,162,1854,1,0.65,0.95
12,163,5188,1,0.8,0.65
12,164,1442,-1,1.55,0.5
12,165,1680,-1,1.55,1.4
12,166,1745,-1,0.35,0.05
12,167,1625,1,0.8,1.1
12,168,1612,1,0.2,0.65
12,169,1946,-1,0.65,0.35
12,170,1740,-1,1.4,0.35
12,171,1863,-1,0.95,0.65
12,172,1989,-1,1.4,0.8
12,173,1949,-1,0.95,0.5
12,174,1747,-1,0.65,0.5
12,175,2973,-1,1.1,0.5
12,176,2123,-1,1.55,1.1
12,177,1819,1,0.5,0.8
12,178,2069,1,0.8,1.55
12,179,1819,1,0.5,0.8
12,180,1802,-1,1.55,0.35
12,181,3558,-1,0.65,0.5
12,182,2240,-1,1.4,0.65
12,183,1748,1,0.35,0.5
12,184,1234,1,0.65,1.4
12,185,1470,1,0.5,0.8
12,186,2641,1,0.35,0.95
12,187,2270,1,1.55,1.55
12,188,4314,1,0.65,0.65
12,189,1667,-1,1.55,0.2
12,190,1672,-1,1.55,0.35
12,191,2124,-1,0.8,0.8
12,192,2135,-1,0.5,0.35
12,193,1664,1,0.65,1.55
12,194,1724,1,0.95,1.1
12,195,3955,-1,0.35,0.65
12,196,1780,-1,0.95,0.8
12,197,1572,1,0.5,1.1
12,198,1499,1,0.35,1.55
12,199,1501,1,0.5,0.65
13,0,3506,-1,0.5,0.05
13,1,2980,-1,1.55,0.5
13,2,3085,-1,2.15,1.7
13,3,4721,1,2.45,2.0
13,4,2865,1,2.15,2.45
13,5,3203,1,1.55,1.85
13,6,4214,1,2.0,1.1
13,7,3555,-1,1.7,1.7
13,8,2589,1,1.7,1.7
13,9,7639,-1,0.5,2.15
13,10,2773,1,0.5,1.7
13,11,2031,1,0.2,2.45
13,12,2572,-1,0.95,0.8
13,13,2365,1,0.8,2.0
13,14,2909,1,1.4,2.45
13,15,2928,-1,1.4,2.75
13,16,3911,1,2.15,2.0
13,17,3158,-1,1.85,2.0
13,18,4834,1,2.15,1.7
13,19,5582,-1,1.7,2.45
13,20,5670,-1,2.0,0.5
13,21,3809,1,0.35,0.95
13,22,2212,-1,1.4,1.1
13,23,3480,1,1.7,2.15
13,24,3696,1,1.85,2.45
13,25,6170,1,2.0,1.55
13,26,4571,-1,1.85,0.65
13,27,4636,-1,1.7,0.95
13,28,3689,-1,1.55,0.65
13,29,4681,-1,0.95,0.8
13,30,3393,1,1.25,1.7
13,31,9360,1,1.7,1.55
13,32,7062,-1,1.4,0.5
13,33,4169,1,0.05,2.0
13,34,2802,-1,2.15,1.25
13,35,3467,-1,0.95,2.45
13,36,3090,1,2.75,2.3
13,37,2204,1,1.85,0.95
13,38,1922,-1,2.3,1.55
13,39,5786,-1,1.55,1.1
13,80,2736,-1,1.7,0.5
13,81,2466,-1,2.15,0.5
13,82,3623,1,1.55,2.0
13,83,2424,1,0.8,2.0
13,84,2002,-1,2.45,0.2
13,85,1571,1,0.05,0.5
13,86,3560,-1,2.15,0.95
13,87,2252,1,1.1,2.0
13,88,1642,1,1.55,1.25
13,89,4497,1,2.0,2.3
13,90,1703,-1,1.1,2.45
13,91,1717,-1,2.3,0.35
13,92,2756,-1,0.5,1.55
13,93,2988,-1,1.1,1.55
13,94,2556,1,1.7,1.25
13,95,2471,-1,2.0,2.0
13,96,2101,1,1.1,1.7
13,97,3562,-1,1.7,1.85
13,98,4303,-1,0.95,1.1
13,99,1778,1,0.5,1.4
13,100,1344,1,0.65,1.55
13,101,1962,1,1.7,1.7
13,102,4684,-1,2.45,0.95
13,103,2466,-1,1.7,2.0
13,104,1986,-1,2.45,1.4
13,105,2107,-1,2.45,1.85
13,106,2329,-1,1.25,0.35
13,107,2312,1,0.35,2.45
13,108,1893,-1,2.15,1.7
13,109,2260,-1,2.0,0.05
13,110,1554,1,0.2,1.4
13,111,2578,1,0.95,1.7
13,112,2204,1,1.4,2.0
13,113,3943,1,0.5,1.85
13,114,2454,-1,2.45,1.7
13,115,2718,-1,2.0,2.15
13,116,2538,-1,1.25,1.7
13,117,1732,-1,2.45,1.85
13,118,3655,-1,1.7,2.15
13,119,4338,-1,1.7,1.25
13,160,4509,1,0.8,0.95
13,161,1608,1,0.35,2.3
13,162,1847,1,0.5,2.0
13,163,3415,-1,1.85,1.55
13,164,2469,-1,2.45,1.1
13,165,2127,1,1.7,1.25
13,166,3784,-1,1.25,1.7
13,167,4130,1,2.0,1.85
13,168,2072,-1,1.7,1.1
13,169,2461,1,1.55,2.3
13,170,3262,-1,2.0,0.8
13,171,2578,1,1.85,1.7
13,172,2521,1,2.0,1.7
13,173,2312,1,1.1,0.95
13,174,5048,-1,2.0,0.8
13,175,2326,1,1.1,1.4
13,176,2761,-1,2.0,2.45
13,177,1701,-1,2.0,1.4
13,178,1430,-1,2.3,2.0
13,179,2193,-1,2.45,2.15
13,180,1634,-1,2.3,2.75
13,181,3721,-1,0.95,0.35
13,182,2321,-1,1.25,1.55
13,183,3127,1,0.5,1.7
13,184,4937,-1,1.85,0.5
13,185,1991,1,1.85,2.45
13,186,1710,-1,2.45,0.35
13,187,2766,-1,2.0,2.0
13,188,1513,-1,1.7,0.5
13,189,2012,1,0.8,0.95
13,190,4019,-1,0.95,1.85
13,191,2201,1,1.25,2.15
13,192,2828,-1,1.7,1.7
13,193,3757,-1,1.55,1.7
13,194,1941,1,1.7,2.15
13,195,2158,1,2.75,1.4
13,196,2861,1,0.95,2.15
13,197,1471,-1,1.4,0.2
13,198,2292,1,0.65,1.85
13,199,2536,1,0.35,1.25
14,0,2760,-1,0.8,1.85
14,1,5105,1,1.1,1.1
14,2,4853,1,0.95,0.8
14,3,3052,-1,0.65,0.35
14,4,5478,1,0.95,0.5
14,5,2862,1,0.65,0.8
14,6,2763,1,0.9,0.95
14,7,3249,1,0.95,2.6
14,8,5690,1,1.1,1.25
14,9,2140,1,0.8,0.5
14,10,2729,1,0.5,0.8
14,11,1517,1,0.35,1.55
14,12,2032,-1,2.0,0.8
14,13,4849,-1,1.1,0.95
14,14,2284,-1,1.55,1.25
14,15,3563,-1,2.6,2.75
14,16,2064,-1,0.95,1.4
14,17,3308,-1,0.8,0.8
14,18,2133,-1,2.0,0.95
14,19,2093,1,0.95,2.6
14,20,2719,-1,0.95,0.8
14,21,2134,1,0.8,2.75
14,22,3938,-1,0.9,1.25
14,23,2338,-1,0.8,0.5
14,24,4431,1,1.55,2.15
14,25,3701,-1,1.85,1.1
14,26,3714,1,0.8,1.1
14,27,2911,1,0.95,1.1
14,28,2926,-1,1.55,0.95
14,29,4004,-1,1.55,0.65
14,30,3017,1,0.8,0.8
14,31,2236,-1,1.1,0.5
14,32,4422,-1,0.95,1.1
14,33,2606,-1,1.55,1.1
14,34,3975,-1,1.1,0.5
14,35,1816,-1,0.95,0.5
14,36,2089,-1,2.6,1.1
14,37,1671,1,1.4,2.0
14,38,3882,-1,2.15,0.8
14,39,3183,1,0.65,1.1
14,80,2048,-1,1.1,0.8
14,81,1358,1,0.95,2.0
14,82,1972,1,1.1,2.6
14,83,1506,1,0.5,0.95
14,84,1870,1,1.25,1.55
14,85,3827,1,1.55,2.0
14,86,4009,1,0.95,0.95
14,87,1823,-1,0.95,0.5
14,88,1891,-1,1.55,0.5
14,89,3176,-1,0.8,1.1
14,90,1522,1,1.85,2.0
14,91,1172,1,0.5,1.1
14,92,1541,1,1.1,1.85
14,93,1815,-1,1.1,1.55
14,94,1635,1,1.1,2.6
14,95,1287,1,0.8,2.0
14,96,1549,1,0.5,0.8
14,97,2081,-1,0.95,1.1
14,98,3162,1,1.25,0.95
14,99,1424,1,0.8,2.15
14,100,2061,-1,1.1,0.8
14,101,2998,-1,2.15,1.55
14,102,2476,-1,2.0,0.8
14,103,2307,1,0.65,1.55
14,104,2429,-1,1.1,0.65
14,105,1946,-1,0.8,0.35
14,106,1583,1,0.35,2.6
14,107,1881,1,0.8,0.95
14,108,4080,1,0.95,0.95
14,109,1583,-1,0.95,0.9
14,110,1862,-1,1.55,0.35
14,111,2190,-1,1.7,0.8
14,112,3909,1,0.95,1.7
14,113,2582,-1,2.15,0.95
14,114,2094,-1,0.8,0.5
14,115,1126,1,0.35,0.65
14,116,4553,-1,1.1,2.15
14,117,2060,-1,0.5,1.85
14,118,1614,-1,1.1,0.8
14,119,2439,1,0.8,0.65
14,160,2055,-1,2.6,1.1
14,161,1806,1,0.95,1.55
14,162,2709,1,0.8,0.95
14,163,5664,1,2.15,1.1
14,164,4047,-1,1.25,1.1
14,165,5885,-1,1.1,0.95
14,166,2649,-1,2.0,1.4
14,167,2196,1,2.75,2.6
14,168,1713,1,1.1,0.8
14,169,1688,-1,0.8,0.8
14,170,2312,-1,1.7,0.95
14,171,1614,1,0.8,1.1
14,172,1674,1,2.6,0.95
14,173,2117,1,0.95,2.15
14,174,3274,1,2.75,0.8
14,175,1867,-1,1.1,0.95
14,176,1273,1,0.8,1.7
14,177,1686,1,0.8,0.8
14,178,1439,1,0.35,0.8
14,179,1928,-1,1.85,0.8
14,180,2615,-1,0.95,1.25
14,181,2699,-1,0.5,0.8
14,182,2169,1,0.95,0.8
14,183,2593,-1,0.95,0.95
14,184,2311,-1,2.6,0.95
14,185,3911,-1,0.95,0.95
14,186,2211,1,1.85,0.5
14,187,1851,1,1.1,1.1
14,188,1526,1,0.8,1.1
14,189,1669,1,0.5,1.1
14,190,2369,-1,2.6,0.35
14,191,1317,1,0.8,0.95
14,192,2625,1,2.0,1.55
14,193,2430,-1,1.25,0.9
14,194,2106,1,0.8,2.0
14,195,1432,1,1.4,0.95
14,196,1304,1,0.5,0.95
14,197,2075,1,2.0,1.85
14,198,3202,1,0.5,0.95
14,199,926,1,0.5,1.55
15,0,3122,1,1.1,1.55
15,1,2113,-1,2.0,0.95
15,2,1817,1,0.95,1.25
15,3,13467,1,2.0,1.1
15,4,2553,1,0.5,0.95
15,5,3777,-1,1.55,0.95
15,6,2998,-1,1.1,0.8
15,7,3867,1,3.0,1.55
15,8,3850,1,1.25,1.1
15,9,3788,-1,1.25,0.95
15,10,3168,-1,1.25,0.8
15,11,5483,1,0.8,0.95
15,12,5333,-1,1.4,0.95
15,13,3084,1,0.95,1.1
15,14,2038,1,1.1,2.0
15,15,2726,1,0.65,1.1
15,16,2985,1,1.1,1.1
15,17,3928,1,1.25,1.25
15,18,2503,-1,1.1,0.65
15,19,2530,1,0.95,3.0
15,20,7257,1,0.8,1.55
15,21,3053,-1,1.1,0.5
15,22,5096,1,0.95,1.4
15,23,2094,1,1.1,2.3
15,24,2974,1,0.95,1.1
15,25,3254,-1,1.55,0.8
15,26,1982,-1,1.55,1.55
15,27,5552,1,1.1,1.4
15,28,5590,1,1.4,1.1
15,29,9101,1,1.25,1.1
15,30,4241,-1,0.95,0.8
15,31,6322,1,1.4,2.0
15,32,4835,1,1.1,1.1
15,33,3087,-1,0.95,0.95
15,34,2451,-1,1.55,1.25
15,35,13101,-1,1.1,1.1
15,36,3194,1,0.95,1.1
15,37,3344,-1,1.1,0.95
15,38,1457,-1,1.1,0.95
15,39,2485,-1,0.95,0.95
15,80,2982,-1,1.1,1.25
15,81,3131,-1,1.1,0.8
15,82,2125,1,0.95,1.4
15,83,1741,1,1.25,0.95
15,84,7726,1,1.25,1.55
15,85,2261,1,0.5,1.1
15,86,1268,-1,1.1,0.95
15,87,3110,1,1.25,1.1
15,88,2557,-1,1.4,1.25
15,89,3128,-1,1.1,1.4
15,90,2172,-1,1.1,1.1
15,91,2781,1,1.4,0.8
15,92,1806,-1,2.0,1.1
15,93,1993,1,0.8,1.1
15,94,2642,1,0.95,0.95
15,95,3105,-1,1.1,1.1
15,96,4473,-1,0.95,1.1
15,97,1413,-1,2.3,1.1
15,98,1600,-1,1.55,0.8
15,99,1747,1,1.55,1.55
15,100,4233,1,2.0,2.3
15,101,2041,-1,1.1,1.1
15,102,6414,1,1.1,1.1
15,103,2066,1,0.95,1.1
15,104,3344,-1,1.25,1.1
15,105,1771,-1,2.0,0.8
15,106,4325,-1,0.95,0.8
15,107,1653,1,0.65,1.1
15,108,1831,1,0.95,0.95
15,109,2366,-1,1.85,1.1
15,110,3928,-1,0.95,1.85
15,111,745,-1,1.4,1.1
15,112,589,-1,1.1,2.0
15,113,2382,-1,1.1,0.95
15,114,2128,-1,1.1,1.25
15,115,1814,1,1.1,1.1
15,116,1919,1,0.8,1.55
15,117,1829,1,0.8,1.25
15,118,5215,1,0.95,1.25
15,119,1722,1,0.95,1.1
15,160,1948,-1,1.1,1.25
15,161,2361,-1,1.25,1.25
15,162,1359,-1,1.4,0.95
15,163,3505,-1,1.25,0.95
15,164,1759,1,1.25,1.4
15,165,2437,-1,1.4,0.95
15,166,1846,1,1.1,2.0
15,167,6845,-1,1.1,0.95
15,168,3491,-1,1.55,1.1
15,169,2384,1,1.1,1.1
15,170,1764,1,1.1,0.8
15,171,2886,-1,1.1,0.65
15,172,2924,-1,2.3,2.0
15,173,1612,-1,1.1,1.1
15,174,1905,-1,0.95,1.25
15,175,2184,-1,1.1,1.85
15,176,1669,1,0.95,1.1
15,177,2722,-1,1.1,2.0
15,178,4781,1,0.8,1.4
15,179,923,-1,0.8,2.0
15,180,2715,1,0.8,0.95
15,181,1932,-1,1.1,0.95
15,182,2508,1,1.55,3.0
15,183,1277,-1,2.0,1.1
15,184,2415,-1,3.0,0.95
15,185,5030,-1,2.0,1.1
15,186,1638,1,1.1,1.1
15,187,1720,-1,0.8,1.1
15,188,1208,-1,0.8,1.1
15,189,6303,1,0.95,0.5
15,190,1810,1,0.95,1.55
15,191,2031,-1,1.1,1.1
15,192,1511,1,0.95,2.0
15,193,1582,-1,2.0,1.4
15,194,1433,-1,1.1,1.1
15,195,1773,-1,1.1,1.1
15,196,1225,-1,1.85,0.95
15,197,2914,-1,1.1,0.95
15,198,1666,1,0.95,1.4
15,199,3874,-1,1.1,1.25
16,0,3026,-1,1.55,0.95
16,1,6085,-1,1.4,0.65
16,2,2973,1,0.5,1.25
16,3,2403,-1,1.7,0.2
16,4,4994,-1,1.4,1.25
16,5,8129,1,0.8,1.1
16,6,2724,1,0.2,0.95
16,7,2958,1,0.65,1.7
16,8,6325,-1,0.8,0.8
16,9,2982,-1,1.55,0.95
16,10,2517,1,0.5,1.7
16,11,4855,-1,0.8,0.5
16,12,5389,-1,1.4,0.65
16,13,8752,-1,0.65,0.5
16,14,6138,1,1.4,0.8
16,15,11077,1,0.8,1.7
16,16,8571,-1,1.7,1.4
16,17,2352,1,0.35,1.4
16,18,2796,1,0.65,1.7
16,19,7217,-1,1.55,1.1
16,20,2216,-1,0.45,0.15
16,21,4222,1,1.4,1.4
16,22,8159,1,1.25,1.55
16,23,2066,-1,0.95,0.35
16,24,6417,-1,0.8,0.65
16,25,3729,1,1.7,2.0
16,26,2155,-1,1.55,0.8
16,27,1420,-1,1.55,0.5
16,28,2756,-1,0.95,0.95
16,29,5361,-1,0.65,0.35
16,30,2690,-1,2.0,0.95
16,31,3691,1,1.7,2.0
16,32,3081,1,0.8,0.95
16,33,3734,-1,1.85,1.55
16,34,1798,1,1.25,0.65
16,35,7156,-1,0.5,1.7
16,36,3874,1,0.45,1.4
16,37,1818,-1,1.7,1.25
16,38,2288,1,0.0,0.8
16,39,1531,-1,1.7,0.95
16,80,1843,-1,2.0,0.95
16,81,2659,1,0.65,1.25
16,82,6096,1,1.55,1.7
16,83,1394,-1,1.7,0.65
16,84,1685,-1,0.5,0.95
16,85,5368,-1,1.4,1.4
16,86,3149,1,0.95,1.55
16,87,4200,1,1.1,1.55
16,88,1871,-1,0.65,0.2
16,89,5307,1,2.0,1.7
16,90,1129,1,0.15,1.7
16,91,3542,-1,1.7,1.1
16,92,3093,-1,0.65,0.95
16,93,4561,-1,1.25,0.5
16,94,1770,-1,1.4,0.35
16,95,1420,-1,1.7,0.5
16,96,3153,1,1.25,1.4
16,97,3412,1,0.95,1.85
16,98,2581,1,1.7,1.55
16,99,2098,-1,1.7,0.65
16,100,3913,-1,0.95,0.65
16,101,2231,1,0.95,1.7
16,102,2624,1,0.5,0.5
16,103,4743,-1,1.1,0.95
16,104,1592,-1,1.25,0.5
16,105,3100,1,0.35,1.7
16,106,4751,1,1.7,0.8
16,107,3495,-1,1.1,0.8
16,108,1791,1,0.2,1.7
16,109,2888,1,0.5,0.8
16,110,1503,1,0.35,0.95
16,111,1312,1,0.35,0.65
16,112,2402,1,0.2,1.7
16,113,1841,-1,0.8,1.4
16,114,2094,1,0.0,1.55
16,115,2247,1,0.15,0.45
16,116,2259,1,0.65,0.8
16,117,2496,1,1.25,1.7
16,118,3827,-1,1.55,1.7
16,119,2171,-1,0.65,1.25
16,160,4286,-1,1.85,0.95
16,161,1674,-1,1.55,0.0
16,162,2642,-1,0.65,0.95
16,163,1775,1,1.7,1.55
16,164,1913,1,0.8,0.8
16,165,1524,1,0.5,1.55
16,166,3266,1,1.4,1.7
16,167,2329,1,0.8,1.55
16,168,1653,-1,1.7,0.2
16,169,3485,-1,1.25,0.65
16,170,3184,1,0.95,1.55
16,171,2099,1,0.95,0.65
16,172,1136,1,0.95,1.55
16,173,3904,-1,1.55,1.25
16,174,3114,-1,1.25,1.4
16,175,1077,-1,0.8,0.0
16,176,4534,1,1.55,1.85
16,177,3365,1,1.1,1.7
16,178,4319,-1,1.7,1.55
16,179,1701,-1,0.95,0.2
16,180,2377,1,0.95,0.95
16,181,1792,-1,0.5,0.5
16,182,4765,-1,1.55,0.95
16,183,4563,-1,0.5,1.25
16,184,1163,1,0.2,0.65
16,185,2835,-1,1.4,0.45
16,186,2615,1,0.95,2.0
16,187,2472,-1,1.7,0.35
16,188,1629,-1,1.7,0.15
16,189,2520,1,0.95,2.0
16,190,1672,1,0.95,1.1
16,191,6876,-1,1.4,1.25
16,192,2783,1,1.7,0.5
16,193,1208,1,0.5,0.65
16,194,4702,1,0.95,0.8
16,195,2309,-1,1.55,1.7
16,196,5914,1,0.65,1.4
16,197,1745,1,0.95,0.5
16,198,2538,-1,2.0,1.7
16,199,6103,1,0.65,1.4
18,40,2347,1,0.0,1.7
18,41,4609,-1,2.15,1.85
18,42,2277,-1,1.85,0.95
18,43,4343,1,1.85,2.15
18,44,1852,-1,2.45,0.95
18,45,3006,1,1.25,3.0
18,46,3997,1,1.85,1.85
18,47,2303,1,1.7,1.85
18,48,2471,-1,1.7,0.95
18,49,2984,-1,2.3,1.7
18,50,2887,-1,2.15,1.55
18,51,3416,1,0.0,1.4
18,52,3238,-1,2.0,2.15
18,53,4059,1,2.0,2.0
18,54,5618,-1,3.0,1.7
18,55,2367,1,2.15,2.0
18,56,4644,-1,2.45,2.0
18,57,2863,1,1.25,1.7
18,58,5322,-1,2.3,1.85
18,59,3601,-1,0.95,1.55
18,60,3177,-1,2.0,1.1
18,61,2087,1,1.1,1.85
18,62,1881,-1,2.0,1.4
18,63,2636,1,0.0,2.0
18,64,2977,1,2.0,2.15
18,65,1999,-1,2.45,1.1
18,66,1680,-1,1.7,0.0
18,67,1682,-1,2.45,0.0
18,68,2004,-1,0.95,1.1
18,69,3834,1,0.0,1.85
18,70,2209,1,0.35,2.15
18,71,3455,1,1.55,2.6
18,72,1943,-1,3.0,2.0
18,73,2699,-1,1.55,0.95
18,74,2353,-1,1.25,1.1
18,75,1816,1,0.8,1.7
18,76,2326,1,1.7,2.3
18,77,1670,-1,1.85,1.25
18,78,1581,1,0.95,2.15
18,79,3447,1,1.25,2.0
18,120,2660,1,1.4,2.0
18,121,5081,1,2.0,2.45
18,122,1518,1,0.95,2.45
18,123,5153,-1,3.0,2.3
18,124,3875,1,2.6,2.45
18,125,3791,-1,2.45,0.0
18,126,11142,1,1.1,1.25
18,127,2744,1,1.55,2.15
18,128,3385,1,1.25,1.1
18,129,5527,1,1.7,1.7
18,130,4437,-1,2.0,1.7
18,131,2800,1,0.95,1.55
18,132,8278,-1,2.15,0.8
18,133,2593,1,1.7,2.0
18,134,5415,1,1.7,3.0
18,135,7503,1,0.95,2.0
18,136,1485,-1,1.85,0.0
18,137,1678,1,0.95,1.7
18,138,1670,-1,2.15,0.35
18,139,1435,-1,1.85,0.0
18,140,3075,-1,0.35,0.0
18,141,2836,1,1.85,2.3
18,142,2918,-1,1.7,1.25
18,143,3368,1,2.3,2.45
18,144,3790,1,1.1,2.45
18,145,3975,-1,2.15,2.0
18,146,10704,1,2.15,2.0
18,147,2259,-1,2.15,1.1
18,148,4703,1,2.0,1.85
18,149,3892,-1,1.55,1.1
18,150,2285,1,1.1,0.95
18,151,1677,-1,2.0,0.0
18,152,5637,-1,1.7,2.15
18,153,2500,1,1.1,2.0
18,154,1617,-1,2.0,0.95
18,155,6712,-1,2.15,1.85
18,156,1661,-1,0.95,0.0
18,157,2060,1,1.25,1.85
18,158,4647,1,2.15,2.45
18,159,3879,-1,2.3,1.55
18,200,2797,1,1.1,1.25
18,201,2269,1,1.55,2.3
18,202,3319,1,0.0,0.35
18,203,2630,1,0.0,2.45
18,204,4088,1,2.15,1.7
18,205,1656,-1,1.85,2.0
18,206,2743,1,2.3,3.0
18,207,2090,-1,1.7,0.8
18,208,2497,1,1.1,2.15
18,209,3452,1,0.95,1.85
18,210,1385,-1,3.0,1.25
18,211,1457,-1,2.0,1.7
18,212,2053,1,1.7,2.3
18,213,1590,-1,2.0,2.0
18,214,1725,-1,2.3,1.7
18,215,3526,-1,2.0,2.15
18,216,1481,-1,2.45,2.6
18,217,4475,-1,1.85,1.7
18,218,2768,1,0.95,2.0
18,219,2070,1,0.0,0.95
18,220,1682,-1,1.4,0.0
18,221,2798,-1,2.45,2.3
18,222,2243,1,1.85,2.15
18,223,2567,-1,2.6,1.55
18,224,2400,-1,1.85,1.1
18,225,1727,-1,2.15,0.95
18,226,1333,-1,1.7,1.7
18,227,1451,-1,2.45,2.15
18,228,3171,-1,2.0,0.95
18,229,1823,1,0.0,1.85
18,230,1639,-1,1.7,2.0
18,231,1509,1,0.0,1.7
18,232,1789,1,0.0,2.45
18,233,1537,-1,1.7,0.0
18,234,1819,1,1.1,1.55
18,235,1500,1,1.55,0.95
18,236,1563,-1,2.0,1.25
18,237,1570,-1,1.85,1.85
18,238,1690,1,0.8,2.15
18,239,1511,1,2.0,3.0
19,0,5398,-1,0.35,0.95
19,1,3681,-1,2.0,1.55
19,2,10254,1,1.25,0.35
19,3,7236,1,0.0,0.0
19,4,3581,1,0.0,2.15
19,5,6010,-1,1.4,0.8
19,6,2128,-1,2.6,0.2
19,7,3927,1,0.05,2.75
19,8,2434,-1,3.0,0.35
19,9,2731,1,0.05,2.15
19,10,3431,-1,0.05,0.0
19,11,5329,1,0.05,0.2
19,12,2264,-1,2.0,0.0
19,13,4634,-1,0.15,0.2
19,14,4420,1,0.05,0.05
19,15,4781,-1,1.55,0.95
19,16,2578,1,0.15,1.55
19,17,1730,-1,0.95,0.05
19,18,4365,1,0.35,0.05
19,19,6379,-1,2.15,0.95
19,20,5608,1,0.95,0.05
19,21,2135,-1,2.6,1.25
19,22,4357,1,0.05,0.05
19,23,5648,-1,0.35,0.2
19,24,3293,1,0.05,1.55
19,25,4716,-1,0.35,0.15
19,26,2743,1,0.15,0.65
19,27,9481,1,2.0,2.0
19,28,2364,-1,0.05,0.35
19,29,3458,1,0.05,0.65
19,30,4363,-1,1.4,0.15
19,31,4529,-1,2.0,0.05
19,32,5752,-1,0.65,1.55
19,33,3636,1,0.65,3.0
19,34,2780,-1,0.05,0.15
19,35,2434,1,0.05,1.55
19,36,6016,1,0.65,2.9
19,37,3525,1,0.35,0.8
19,38,13395,-1,0.35,0.65
19,39,4722,-1,0.95,0.05
19,80,2537,1,1.55,0.15
19,81,2947,1,0.95,2.15
19,82,1619,-1,0.05,0.05
19,83,1767,1,0.0,0.95
19,84,1357,-1,3.0,0.05
19,85,2327,1,1.25,2.6
19,86,1295,-1,1.85,0.95
19,87,1505,-1,0.35,1.25
19,88,1539,-1,1.55,0.05
19,89,1917,1,0.05,2.0
19,90,1641,-1,2.15,0.0
19,91,5970,1,2.0,2.0
19,92,1399,-1,2.9,0.0
19,93,2385,1,0.05,0.65
19,94,2077,1,0.05,0.65
19,95,3838,-1,0.65,0.35
19,96,2894,-1,0.0,0.0
19,97,3646,-1,0.0,0.2
19,98,2923,1,0.05,0.95
19,99,1362,-1,2.15,0.05
19,100,1653,1,0.0,1.85
19,101,2215,-1,0.05,0.05
19,102,1651,-1,0.65,0.15
19,103,1286,-1,2.75,0.05
19,104,1974,1,0.95,3.0
19,105,1744,1,0.65,2.15
19,106,2072,1,0.95,1.55
19,107,2848,1,0.2,2.15
19,108,2096,1,0.15,0.05
19,109,2181,1,0.05,0.0
19,110,1402,-1,0.35,0.05
19,111,2439,-1,1.55,0.05
19,112,1342,-1,2.15,1.55
19,113,1279,-1,2.75,0.65
19,114,1656,-1,0.2,0.05
19,115,3002,1,0.8,1.4
19,116,1997,1,0.05,0.95
19,117,2417,1,0.0,0.05
19,118,1851,1,0.2,2.6
19,119,5824,1,0.35,0.05
19,160,5859,-1,0.8,0.35
19,161,3315,1,0.2,0.0
19,162,2559,-1,3.0,0.95
19,163,4225,-1,1.55,2.0
19,164,2053,-1,0.65,0.05
19,165,2050,1,0.2,0.15
19,166,1325,-1,1.85,0.0
19,167,1781,1,0.05,0.35
19,168,2057,1,0.05,0.05
19,169,2343,-1,0.05,0.35
19,170,1676,1,0.05,2.0
19,171,7734,-1,0.95,0.05
19,172,1523,-1,2.15,0.2
19,173,1913,1,0.05,3.0
19,174,3258,1,0.05,0.05
19,175,1869,1,1.55,0.65
19,176,1785,1,0.05,0.95
19,177,1864,-1,0.65,0.05
19,178,1620,1,1.55,2.15
19,179,1421,-1,0.05,0.05
19,180,2821,1,0.05,1.55
19,181,1837,-1,2.0,0.05
19,182,2143,-1,0.0,0.05
19,183,2303,1,0.35,3.0
19,184,1635,-1,0.65,0.05
19,185,1685,1,0.15,0.35
19,186,1497,-1,0.05,0.95
19,187,1461,1,0.65,2.75
19,188,1409,-1,0.95,0.0
19,189,1371,-1,1.55,0.05
19,190,2282,1,0.05,0.05
19,191,1547,1,0.2,0.35
19,192,1484,1,0.15,1.4
19,193,2392,1,0.95,0.35
19,194,1386,-1,2.15,0.65
19,195,1743,1,0.0,2.9
19,196,1569,1,0.95,1.85
19,197,1427,-1,3.0,0.65
19,198,2294,1,0.0,2.0
19,199,1490,-1,2.9,0.65
20,0,5625,1,0.5,0.65
20,1,3011,-1,0.5,0.2
20,2,2836,-1,0.8,0.05
20,3,2489,-1,0.35,0.0
20,4,2592,1,0.35,0.2
20,5,6979,1,0.0,0.2
20,6,2678,-1,0.8,0.0
20,7,2408,1,0.0,0.5
20,8,5748,-1,0.05,0.2
20,9,2369,-1,0.35,0.0
20,10,2099,1,0.05,0.35
20,11,2751,-1,0.65,0.05
20,12,6040,1,0.5,0.35
20,13,3337,-1,0.5,0.2
20,14,3756,-1,0.95,0.2
20,15,5066,-1,0.2,0.2
20,16,1630,1,0.0,0.95
20,17,4238,-1,0.8,0.95
20,18,5891,-1,0.2,0.2
20,19,5531,1,0.35,0.5
20,20,4735,-1,0.0,0.05
20,21,4583,-1,0.2,0.05
20,22,2663,-1,0.5,0.2
20,23,1640,1,0.0,0.2
20,24,1840,1,0.0,0.95
20,25,3607,1,0.0,0.05
20,26,6972,1,0.0,0.0
20,27,2353,-1,0.65,0.0
20,28,1913,1,0.2,0.35
20,29,1857,1,0.0,0.05
20,30,2072,1,0.0,0.5
20,31,3879,-1,0.05,0.05
20,32,1814,-1,0.65,0.35
20,33,1994,-1,0.0,0.0
20,34,3409,-1,0.2,0.0
20,35,1475,1,0.0,0.2
20,36,6676,1,0.05,0.0
20,37,3013,-1,0.0,0.0
20,38,2350,-1,0.5,0.0
20,39,2477,1,0.0,0.35
20,80,1774,1,0.2,0.5
20,81,1889,-1,0.2,0.35
20,82,1475,1,0.0,0.35
20,83,3620,-1,0.0,0.0
20,84,4655,1,0.2,0.0
20,85,1990,-1,0.05,0.0
20,86,1708,1,0.0,0.0
20,87,1510,1,0.35,0.35
20,88,1843,-1,0.35,0.0
20,89,3003,-1,0.65,0.5
20,90,1585,1,0.0,0.5
20,91,1568,-1,0.95,0.0
20,92,1692,1,0.2,0.5
20,93,1234,1,0.2,0.8
20,94,1422,-1,0.35,0.05
20,95,1365,1,0.2,0.05
20,96,1767,-1,0.0,0.2
20,97,4305,-1,0.35,0.0
20,98,1648,1,0.0,0.05
20,99,1798,1,0.0,0.8
20,100,1422,1,0.2,0.2
20,101,2184,-1,0.5,0.2
20,102,4273,-1,0.0,0.0
20,103,1511,1,0.2,0.95
20,104,3052,1,0.35,0.8
20,105,2488,1,0.05,0.0
20,106,2853,1,0.0,0.2
20,107,2000,-1,0.5,0.05
20,108,1609,1,0.0,0.5
20,109,2723,-1,0.05,0.05
20,110,3316,-1,0.2,0.05
20,111,1875,-1,0.2,0.0
20,112,1548,1,0.2,0.95
20,113,1897,1,0.05,0.2
20,114,1611,1,0.05,0.65
20,115,1580,1,0.35,0.65
20,116,2759,1,0.0,0.0
20,117,3632,-1,0.35,0.05
20,118,2008,1,0.0,0.8
20,119,6381,1,0.2,0.0
20,160,3125,-1,0.0,0.0
20,161,1659,-1,0.95,0.0
20,162,1512,-1,0.8,0.2
20,163,3430,1,0.05,0.2
20,164,1727,1,0.35,0.5
20,165,1074,-1,0.05,0.0
20,166,1689,-1,0.95,0.0
20,167,1883,1,0.0,0.65
20,168,5919,-1,0.0,0.2
20,169,3246,1,0.0,0.2
20,170,1562,1,0.2,0.0
20,171,1391,-1,0.35,0.35
20,172,1656,1,0.0,0.35
20,173,1455,1,0.2,0.05
20,174,1239,-1,0.5,0.0
20,175,2428,1,0.0,0.0
20,176,1316,-1,0.2,0.0
20,177,1329,1,0.0,0.95
20,178,1224,-1,0.95,0.2
20,179,2683,1,0.0,0.0
20,180,2001,1,0.05,0.5
20,181,2319,1,0.0,0.35
20,182,1274,-1,0.5,0.0
20,183,1627,1,0.2,0.5
20,184,2387,1,0.95,0.8
20,185,1711,1,0.05,0.8
20,186,1138,-1,0.05,0.0
20,187,1113,-1,0.2,0.0
20,188,1730,1,0.2,0.5
20,189,2343,-1,0.5,0.35
20,190,1093,-1,0.35,0.2
20,191,5067,1,0.0,0.05
20,192,2320,-1,0.8,0.35
20,193,2060,-1,0.5,0.0
20,194,1437,-1,0.8,0.0
20,195,1630,1,0.0,0.0
20,196,2931,1,0.2,0.2
20,197,3606,-1,0.05,0.2
20,198,1686,1,0.05,0.35
20,199,1836,1,0.0,0.0
21,0,3613,1,0.05,1.4
21,1,2184,1,0.95,1.55
21,2,2622,1,1.4,1.85
21,3,2160,1,0.35,1.55
21,4,2022,-1,1.55,0.0
21,5,1503,-1,2.75,2.3
21,6,1644,-1,1.7,1.4
21,7,2063,1,0.65,1.85
21,8,5256,1,0.5,0.65
21,9,1899,1,0.0,1.7
21,10,2077,1,0.0,2.0
21,11,1437,-1,1.85,0.0
21,12,1179,-1,1.7,0.0
21,13,3993,1,0.0,0.0
21,14,2048,1,1.85,1.55
21,15,2449,-1,1.7,0.8
21,16,4422,1,1.25,1.7
21,17,2228,-1,2.0,0.35
21,18,1824,1,0.0,1.85
21,19,1981,1,1.55,1.55
21,20,1806,-1,1.55,0.95
21,21,5094,-1,0.0,0.0
21,22,4230,-1,0.35,0.2
21,23,1933,1,0.0,0.95
21,24,2190,-1,1.85,1.1
21,25,1817,1,2.0,1.7
21,26,1841,1,0.0,1.25
21,27,2065,-1,1.85,0.5
21,28,1862,-1,2.0,1.85
21,29,3807,-1,0.8,0.2
21,30,1309,-1,2.0,0.2
21,31,1948,1,1.7,1.85
21,32,1893,1,2.3,1.1
21,33,6052,1,0.35,0.8
21,34,2050,1,0.95,2.75
21,35,2261,1,2.0,1.7
21,36,1836,1,0.2,1.4
21,37,2129,1,0.0,0.8
21,38,6925,-1,1.1,1.1
21,39,1485,-1,1.85,1.55
21,80,7736,1,0.0,2.0
21,81,2374,1,0.65,0.5
21,82,4206,1,0.05,0.95
21,83,1951,1,2.3,2.75
21,84,3179,-1,1.55,0.35
21,85,1698,-1,1.1,2.3
21,86,1479,-1,1.55,0.95
21,87,2854,1,0.8,1.85
21,88,1524,-1,1.7,1.25
21,89,1705,1,1.55,0.8
21,90,2357,1,0.0,1.1
21,91,2471,1,0.8,1.85
21,92,1658,1,0.5,1.85
21,93,2018,1,1.55,1.7
21,94,2153,1,0.0,0.0
21,95,2505,-1,2.75,0.95
21,96,1749,-1,1.85,1.85
21,97,1330,-1,1.25,0.0
21,98,2261,1,0.0,1.7
21,99,1276,-1,0.8,0.0
21,100,1850,-1,1.7,2.0
21,101,1338,-1,1.85,0.65
21,102,1802,1,0.0,1.7
21,103,1548,-1,1.85,0.8
21,104,1653,1,1.1,2.0
21,105,1296,-1,1.55,1.55
21,106,2316,1,1.1,1.1
21,107,1800,1,0.0,1.55
21,108,1952,-1,2.0,0.0
21,109,2198,1,1.4,1.55
21,110,8469,1,2.0,1.85
21,111,3221,1,1.7,2.0
21,112,2501,1,0.0,0.95
21,113,3300,-1,0.0,0.0
21,114,2085,-1,1.4,0.05
21,115,2036,-1,1.7,0.0
21,116,2634,-1,1.55,1.85
21,117,1993,1,0.0,1.4
21,118,2085,1,1.4,1.7
21,119,2438,-1,0.8,0.8
21,160,2027,1,0.35,2.0
21,161,1926,-1,1.55,1.4
21,162,1072,-1,0.95,0.0
21,163,1082,-1,1.7,0.0
21,164,3030,-1,0.95,0.0
21,165,2328,1,0.0,0.0
21,166,1446,-1,1.85,1.4
21,167,2191,1,0.8,1.85
21,168,2558,-1,0.2,0.35
21,169,1858,1,0.2,2.0
21,170,7679,-1,0.0,0.0
21,171,2363,1,0.0,1.55
21,172,1292,-1,1.4,0.0
21,173,1551,1,1.55,1.85
21,174,1420,-1,2.0,0.0
21,175,3093,1,0.0,1.85
21,176,1745,-1,2.0,1.7
21,177,1592,-1,2.0,1.1
21,178,1259,-1,1.7,0.0
21,179,2554,-1,1.7,2.0
21,180,1967,1,1.7,1.55
21,181,1965,-1,1.85,2.0
21,182,1973,1,0.0,1.7
21,183,3087,1,0.95,1.55
21,184,1736,1,1.1,1.85
21,185,2558,-1,1.85,1.7
21,186,1717,1,1.85,1.85
21,187,2571,1,0.8,1.7
21,188,5917,-1,0.95,0.05
21,189,1422,-1,1.1,0.0
21,190,1736,1,0.8,0.8
21,191,1255,-1,1.85,0.8
21,192,2394,-1,1.85,0.8
21,193,1324,-1,1.55,0.0
21,194,1903,1,1.85,2.0
21,195,1909,1,0.2,0.8
21,196,1671,-1,1.4,0.2
21,197,1361,-1,0.8,1.55
21,198,1646,-1,0.8,0.35
21,199,1505,-1,1.85,0.0
22,40,2297,1,1.1,0.5
22,41,4812,1,0.65,0.35
22,42,5754,-1,0.95,0.8
22,43,2440,-1,0.65,0.5
22,44,1998,-1,0.5,0.5
22,45,2974,-1,0.8,0.8
22,46,2795,-1,0.8,0.5
22,47,2195,1,0.5,0.65
22,48,2399,1,0.8,0.65
22,49,2914,1,0.65,0.05
22,50,1593,-1,0.65,0.35
22,51,2069,1,0.35,0.5
22,52,2134,-1,0.35,0.2
22,53,2582,-1,0.65,0.65
22,54,2708,1,0.2,0.5
22,55,2144,-1,0.65,0.8
22,56,1796,1,0.5,0.35
22,57,1410,-1,0.35,1.1
22,58,3040,-1,0.35,0.65
22,59,1945,-1,0.5,0.5
22,60,2467,-1,0.95,0.5
22,61,2359,-1,0.5,0.35
22,62,3682,1,0.8,0.5
22,63,2236,-1,0.35,0.2
22,64,2354,-1,0.05,0.35
22,65,2460,1,0.5,0.5
22,66,1666,-1,0.95,0.65
22,67,1422,-1,0.65,0.35
22,68,1239,-1,1.4,0.5
22,69,2887,1,0.5,0.2
22,70,2156,-1,0.35,0.8
22,71,2944,1,1.25,0.5
22,72,2406,1,0.35,0.8
22,73,1488,-1,0.35,0.35
22,74,3311,1,0.0,0.95
22,75,1422,-1,0.65,0.65
22,76,1930,1,0.5,1.1
22,77,2048,1,0.8,0.35
22,78,3073,-1,0.2,0.5
22,79,2500,-1,0.2,0.8
22,120,3978,1,1.1,0.35
22,121,2441,1,0.8,0.8
22,122,3181,-1,0.35,0.35
22,123,2043,1,0.65,1.1
22,124,2880,1,0.2,0.35
22,125,2321,-1,0.8,0.2
22,126,1427,-1,0.65,1.1
22,127,1922,1,0.5,0.95
22,128,1869,1,0.5,1.4
22,129,1363,-1,0.35,0.65
22,130,2525,1,0.5,0.5
22,131,2899,1,0.5,1.1
22,132,2027,1,0.5,0.95
22,133,1536,1,0.65,0.95
22,134,2356,1,0.65,0.35
22,135,1644,1,1.1,0.5
22,136,1708,-1,0.35,0.8
22,137,2085,-1,0.65,0.2
22,138,1578,-1,1.1,0.5
22,139,1910,-1,0.35,0.5
22,140,1469,-1,0.35,0.5
22,141,3235,1,0.5,0.65
22,142,2905,1,1.4,0.5
22,143,2275,-1,0.5,0.0
22,144,1493,1,0.35,0.65
22,145,2797,-1,0.5,1.25
22,146,4786,-1,0.65,0.35
22,147,2506,1,0.35,0.2
22,148,3871,1,0.35,0.5
22,149,3057,1,0.2,0.5
22,150,2281,-1,0.2,0.5
22,151,2302,-1,0.5,0.8
22,152,1903,1,1.25,0.35
22,153,2072,1,0.35,0.95
22,154,2793,-1,0.95,0.8
22,155,1837,1,0.35,0.65
22,156,2656,1,0.05,0.65
22,157,9979,-1,0.2,0.35
22,158,3219,1,0.35,0.5
22,159,5373,1,0.8,0.65
22,200,4082,-1,0.5,0.2
22,201,2163,-1,1.1,0.65
22,202,2184,-1,0.5,0.2
22,203,3654,-1,0.5,0.35
22,204,2203,1,0.35,0.05
22,205,2279,1,0.8,0.35
22,206,2094,-1,0.95,0.5
22,207,1669,1,1.1,0.65
22,208,1528,1,0.65,0.35
22,209,2125,-1,0.35,0.5
22,210,1882,1,0.65,0.8
22,211,4247,-1,0.95,0.5
22,212,3677,1,0.0,0.5
22,213,4463,-1,0.65,0.65
22,214,1515,-1,0.5,1.1
22,215,1873,1,0.35,0.65
22,216,1803,1,0.8,0.95
22,217,2140,-1,0.65,0.8
22,218,2202,-1,0.8,0.95
22,219,1730,1,0.35,0.65
22,220,2233,1,0.5,0.5
22,221,1721,-1,0.35,1.25
22,222,2022,1,0.65,0.65
22,223,4752,-1,0.95,0.35
22,224,2086,1,0.2,0.8
22,225,1654,-1,0.65,0.5
22,226,1820,-1,0.5,1.4
22,227,2117,-1,0.8,0.2
22,228,5365,1,0.95,0.0
22,229,2423,-1,0.5,0.35
22,230,2918,1,0.5,0.35
22,231,2160,1,0.8,0.65
22,232,2741,-1,0.2,0.35
22,233,3160,-1,0.2,0.65
22,234,7142,1,0.5,0.2
22,235,1417,1,0.5,0.95
22,236,2151,1,0.5,0.35
22,237,2336,1,0.5,0.8
22,238,1830,-1,0.8,0.35
22,239,3016,-1,0.5,0.5
23,40,2332,-1,0.95,0.95
23,41,1728,1,0.95,2.0
23,42,1884,-1,1.1,0.95
23,43,2489,-1,0.95,0.95
23,44,1757,-1,2.15,1.55
23,45,1703,1,1.85,0.95
23,46,1493,1,1.55,0.95
23,47,1569,1,0.95,0.95
23,48,1847,1,1.55,2.0
23,49,3753,-1,1.55,1.1
23,50,1403,-1,2.15,0.8
23,51,2108,-1,0.95,1.1
23,52,1887,1,0.95,1.55
23,53,2060,1,0.95,0.95
23,54,1800,-1,0.95,1.1
23,55,1327,-1,2.0,0.65
23,56,1502,-1,0.95,0.95
23,57,1114,-1,0.95,1.4
23,58,1230,-1,2.0,1.55
23,59,1774,1,0.95,1.25
23,60,2306,-1,0.95,0.95
23,61,1324,-1,1.55,0.95
23,62,2261,1,0.95,0.95
23,63,1877,-1,0.95,0.95
23,64,1773,1,1.55,0.95
23,65,1635,-1,0.95,2.0
23,66,1422,1,2.0,0.95
23,67,1797,1,1.1,1.4
23,68,1751,1,0.95,2.0
23,69,2013,1,1.1,1.1
23,70,1426,-1,0.95,0.95
23,71,1467,-1,1.4,0.95
23,72,1364,-1,1.55,1.1
23,73,1782,1,0.65,0.95
23,74,1608,1,0.95,2.0
23,75,1415,-1,1.55,1.4
23,76,2360,-1,1.1,0.65
23,77,1688,-1,0.95,0.95
23,78,1489,-1,0.8,0.95
23,79,1995,-1,0.95,0.95
23,120,2148,1,1.55,0.95
23,121,1307,1,1.1,1.1
23,122,1535,-1,2.0,0.95
23,123,2116,1,0.95,0.95
23,124,2264,-1,1.85,1.25
23,125,1679,1,2.0,0.95
23,126,2243,-1,1.4,1.1
23,127,1498,1,0.95,1.1
23,128,2214,-1,0.95,0.95
23,129,1724,1,1.1,1.55
23,130,1512,1,1.4,0.95
23,131,1322,-1,0.95,1.55
23,132,1100,-1,0.95,0.95
23,133,2397,-1,2.0,0.95
23,134,2282,1,0.8,0.65
23,135,1196,-1,1.4,0.95
23,136,2025,1,0.95,0.95
23,137,1482,-1,0.95,2.0
23,138,1772,1,0.95,0.95
23,139,1829,1,0.95,0.95
23,140,1728,1,0.95,0.95
23,141,1233,-1,0.95,0.5
23,142,1449,1,1.1,0.95
23,143,1402,-1,0.95,0.65
23,144,1352,-1,0.95,1.4
23,145,1239,-1,1.1,1.1
23,146,1716,-1,0.95,2.0
23,147,1396,1,1.1,0.95
23,148,1462,1,1.55,1.4
23,149,1483,1,0.95,0.95
23,150,1558,1,0.95,1.1
23,151,1998,1,1.4,0.95
23,152,1556,1,0.5,1.55
23,153,1100,-1,1.4,1.4
23,154,1670,1,0.8,1.1
23,155,2746,-1,1.55,0.95
23,156,1332,-1,0.95,1.1
23,157,1445,1,1.55,2.0
23,158,1617,1,0.95,1.4
23,159,1723,1,0.95,1.55
23,200,1738,1,0.5,0.95
23,201,1660,1,0.95,0.8
23,202,1915,1,1.4,0.95
23,203,1421,1,0.95,0.95
23,204,3423,1,2.0,0.95
23,205,1133,-1,1.1,0.8
23,206,1415,1,1.25,1.85
23,207,2034,1,0.95,2.0
23,208,1261,-1,0.95,1.55
23,209,1214,1,0.95,1.55
23,210,1220,-1,0.95,0.95
23,211,1657,-1,1.4,1.55
23,212,1444,1,1.4,1.55
23,213,1282,-1,1.55,0.95
23,214,2040,1,0.65,1.1
23,215,1723,-1,2.0,1.55
23,216,1385,-1,1.1,0.95
23,217,1563,1,0.95,0.95
23,218,2138,1,0.95,0.95
23,219,1766,1,0.65,2.0
23,220,1768,1,0.95,1.4
23,221,1306,1,1.1,1.1
23,222,1390,1,0.95,1.4
23,223,1362,1,0.95,0.95
23,224,1327,-1,0.65,0.8
23,225,1049,-1,0.95,0.95
23,226,1424,1,1.55,2.15
23,227,1230,1,0.95,0.95
23,228,1473,1,0.95,1.55
23,229,1314,-1,1.1,1.55
23,230,1172,-1,1.25,0.95
23,231,1480,1,0.95,0.95
23,232,1292,1,1.4,1.4
23,233,1714,-1,1.55,0.5
23,234,1573,-1,0.95,1.85
23,235,3284,-1,2.0,0.95
23,236,823,1,0.8,2.15
23,237,1164,-1,0.95,0.95
23,238,1663,1,1.1,0.95
23,239,1361,-1,2.0,0.95
24,40,2166,-1,1.1,0.45
24,41,4390,1,0.8,0.8
24,42,2062,1,0.8,0.8
24,43,4324,1,0.35,0.8
24,44,4448,-1,0.3,0.5
24,45,2694,1,0.5,1.1
24,46,1950,1,0.35,1.1
24,47,9842,1,0.8,0.95
24,48,4513,1,0.5,0.65
24,49,2136,1,0.5,0.8
24,50,2124,-1,1.55,0.0
24,51,4294,-1,0.5,0.0
24,52,4598,-1,0.65,0.8
24,53,1695,-1,1.1,0.8
24,54,2258,1,0.5,0.35
24,55,1984,-1,0.95,0.8
24,56,2651,-1,0.5,1.1
24,57,9449,1,0.5,1.1
24,58,7442,1,1.1,0.95
24,59,2865,-1,0.95,0.0
24,60,5971,1,1.25,0.65
24,61,5689,-1,0.8,0.35
24,62,2156,-1,0.95,0.65
24,63,1835,-1,0.95,0.5
24,64,2890,1,0.35,1.4
24,65,6698,1,0.5,0.3
24,66,2652,1,0.95,1.1
24,67,4481,1,0.3,0.95
24,68,4590,1,1.4,1.1
24,69,2529,-1,1.1,0.0
24,70,4333,1,0.35,0.8
24,71,4723,-1,1.55,0.95
24,72,4995,1,1.1,1.4
24,73,3351,1,0.35,0.65
24,74,4356,1,0.95,0.3
24,75,3812,-1,1.1,0.8
24,76,2687,-1,0.8,0.0
24,77,2814,1,0.8,1.4
24,78,11149,-1,0.95,1.1
24,79,2857,-1,0.8,0.35
24,120,2340,-1,0.35,0.5
24,121,2996,-1,0.95,0.8
24,122,3176,-1,0.95,1.1
24,123,1750,-1,1.4,1.1
24,124,3439,1,1.1,0.5
24,125,1569,-1,0.8,0.8
24,126,3036,-1,0.3,0.5
24,127,1645,-1,0.95,0.5
24,128,6142,-1,0.8,1.1
24,129,3802,-1,1.4,1.1
24,130,1826,1,0.0,0.5
24,131,4301,1,0.8,1.1
24,132,2606,-1,0.95,1.1
24,133,3080,-1,0.95,1.25
24,134,5943,-1,1.25,0.65
24,135,1647,-1,0.8,0.35
24,136,1917,-1,1.1,1.25
24,137,1930,1,0.95,1.55
24,138,3327,1,0.35,0.95
24,139,1706,-1,0.65,1.1
24,140,6091,1,0.65,0.95
24,141,2498,1,0.5,1.4
24,142,1582,1,0.5,0.95
24,143,3169,1,0.65,0.65
24,144,5454,1,0.5,0.5
24,145,3277,1,0.5,0.3
24,146,1904,1,0.8,0.65
24,147,1386,-1,1.1,0.35
24,148,3081,-1,0.95,0.3
24,149,1658,1,0.0,0.65
24,150,1879,1,0.0,1.55
24,151,2136,-1,1.4,0.8
24,152,6372,1,0.5,1.1
24,153,3062,-1,0.65,0.45
24,154,1889,-1,0.8,0.5
24,155,3898,-1,0.35,0.8
24,156,1916,-1,0.65,0.35
24,157,1569,-1,1.1,0.5
24,158,2240,1,0.35,0.5
24,159,1611,1,0.45,1.1
24,200,2077,-1,1.4,0.35
24,201,1471,-1,0.65,0.0
24,202,2810,1,1.1,1.4
24,203,2418,1,1.1,0.95
24,204,2539,-1,1.4,0.5
24,205,1950,-1,0.8,0.35
24,206,2047,1,1.1,0.95
24,207,1390,1,0.5,0.95
24,208,6161,1,1.1,0.8
24,209,2722,1,0.8,0.35
24,210,3171,-1,0.65,1.25
24,211,3857,1,0.65,0.95
24,212,3022,-1,0.95,0.65
24,213,1856,1,0.8,1.1
24,214,2536,-1,0.65,0.65
24,215,2274,-1,1.1,0.5
24,216,2358,1,0.8,0.95
24,217,2207,1,0.8,1.1
24,218,1585,1,1.1,0.65
24,219,3072,1,0.0,0.8
24,220,1605,-1,0.8,0.35
24,221,1638,-1,0.5,0.35
24,222,1612,1,0.45,0.65
24,223,3207,1,0.0,1.1
24,224,1810,1,0.35,0.8
24,225,2554,1,0.35,0.8
24,226,1389,-1,1.1,0.95
24,227,1385,1,0.0,0.95
24,228,2947,-1,1.1,0.8
24,229,3629,-1,0.95,0.35
24,230,1871,1,0.35,0.8
24,231,2361,-1,0.3,0.95
24,232,2423,1,0.65,1.25
24,233,1515,-1,1.1,0.5
24,234,1676,1,1.25,1.1
24,235,4381,-1,0.8,0.8
24,236,5454,-1,0.5,0.5
24,237,4313,-1,0.65,0.5
24,238,4109,1,1.25,0.95
24,239,3560,-1,1.1,1.4
26,0,12034,-1,1.1,1.1
26,1,14157,1,0.0,0.35
26,2,4163,1,0.95,0.8
26,3,6916,-1,1.1,0.65
26,4,11792,1,0.65,2.0
26,5,4040,1,0.95,0.5
26,6,6381,1,1.25,0.35
26,7,4779,-1,0.8,0.5
26,8,3639,-1,1.4,0.0
26,9,5037,-1,2.0,1.55
26,10,5566,1,0.65,1.4
26,11,11800,-1,0.65,0.8
26,12,3849,1,1.1,1.4
26,13,10563,-1,1.25,2.0
26,14,9338,1,0.5,1.1
26,15,4573,1,0.8,1.1
26,16,3910,1,0.0,1.1
26,17,9826,-1,0.65,0.95
26,18,4236,1,1.55,0.95
26,19,3490,1,0.0,0.65
26,20,6885,1,0.65,0.65
26,21,4994,1,1.1,0.95
26,22,4121,1,1.25,0.95
26,23,4757,-1,1.55,0.35
26,24,10833,-1,0.35,0.8
26,25,2906,1,1.1,1.1
26,26,5248,-1,0.8,0.8
26,27,9082,1,1.4,0.95
26,28,5486,-1,1.4,0.95
26,29,6309,1,1.55,1.85
26,30,5442,-1,1.4,0.8
26,31,8152,-1,0.8,1.25
26,32,3788,-1,1.25,0.35
26,33,6541,1,0.65,1.25
26,34,3275,1,1.25,1.4
26,35,3104,1,0.65,2.0
26,36,18855,1,0.95,0.8
26,37,3183,1,0.8,1.4
26,38,2348,1,0.35,0.65
26,39,3867,-1,0.95,0.65
26,80,3245,1,1.25,1.85
26,81,5833,-1,1.85,1.55
26,82,3560,-1,2.0,0.65
26,83,5873,-1,1.1,0.8
26,84,2132,-1,0.65,0.0
26,85,3637,-1,0.8,0.65
26,86,3744,1,2.0,0.65
26,87,4117,-1,1.85,0.5
26,88,4000,1,1.1,0.5
26,89,3576,-1,0.65,0.35
26,90,8449,-1,0.8,0.8
26,91,5588,1,0.65,1.1
26,92,3640,-1,0.95,1.1
26,93,4100,-1,1.4,1.55
26,94,2749,1,0.8,0.5
26,95,3314,1,0.95,0.5
26,96,3039,1,0.65,0.95
26,97,7761,1,0.8,0.65
26,98,3861,1,0.95,1.55
26,99,5059,-1,1.4,1.1
26,100,5871,-1,1.4,0.8
26,101,4735,-1,1.25,0.8
26,102,6461,1,2.0,1.25
26,103,5165,1,0.35,1.55
26,104,5425,-1,0.95,0.65
26,105,3315,1,0.8,1.85
26,106,2635,1,0.8,1.4
26,107,10420,-1,1.4,2.0
26,108,8371,-1,0.5,0.65
26,109,2120,1,0.35,1.25
26,110,2861,1,1.1,1.1
26,111,4752,-1,0.95,1.4
26,112,2226,1,1.1,0.8
26,113,5255,-1,0.35,0.0
26,114,2400,1,0.95,1.25
26,115,3716,1,0.0,1.1
26,116,1837,1,1.55,2.0
26,117,4758,-1,0.8,0.0
26,118,3912,-1,1.1,0.5
26,119,3338,1,0.0,1.4
26,160,6098,-1,1.85,0.8
26,161,3291,-1,0.8,0.95
26,162,1720,-1,0.8,0.95
26,163,2829,-1,0.95,1.55
26,164,3359,1,1.1,1.4
26,165,3770,-1,1.1,1.1
26,166,4960,-1,1.55,0.95
26,167,2969,-1,0.5,1.1
26,168,3282,-1,1.4,1.1
26,169,4369,-1,1.25,0.65
26,170,2329,1,0.65,0.8
26,171,4872,1,2.0,1.4
26,172,2227,1,0.65,0.5
26,173,3280,-1,1.85,1.25
26,174,2609,-1,1.25,0.95
26,175,1665,1,0.95,1.4
26,176,3929,1,0.65,0.95
26,177,3471,1,0.95,0.65
26,178,3116,1,0.8,1.4
26,179,3000,-1,0.8,1.1
26,180,3541,1,0.8,0.35
26,181,1532,-1,0.5,0.8
26,182,5023,-1,0.35,1.25
26,183,2311,-1,2.0,0.65
26,184,1339,-1,0.5,0.95
26,185,3697,-1,0.5,0.95
26,186,1828,-1,1.1,0.0
26,187,2908,1,1.25,0.8
26,188,3996,-1,0.65,2.0
26,189,1831,1,0.0,0.8
26,190,2910,1,0.8,1.25
26,191,3252,-1,0.95,1.25
26,192,4456,1,0.5,1.85
26,193,3181,1,0.5,0.8
26,194,4799,-1,1.4,1.25
26,195,2086,-1,1.4,0.8
26,196,1923,-1,1.4,0.65
26,197,4144,-1,0.65,0.65
26,198,3303,1,1.55,1.4
26,199,1059,-1,1.1,0.0
27,40,2559,-1,0.65,0.65
27,41,3243,1,0.5,0.65
27,42,2064,1,0.05,0.65
27,43,4385,-1,0.35,0.5
27,44,2118,-1,0.65,0.0
27,45,1625,1,0.8,0.8
27,46,1755,-1,0.65,0.95
27,47,1526,1,0.5,0.65
27,48,2642,-1,0.0,0.05
27,49,2526,1,0.5,0.35
27,50,4037,1,0.05,0.2
27,51,1939,-1,1.1,0.35
27,52,1916,1,0.5,0.8
27,53,1520,1,0.65,0.95
27,54,1673,-1,0.5,0.95
27,55,2184,1,0.35,0.2
27,56,1556,1,0.65,0.65
27,57,1668,1,0.65,1.1
27,58,2674,-1,0.65,0.5
27,59,2013,1,0.5,0.65
27,60,6841,1,0.65,0.65
27,61,2224,1,0.5,0.65
27,62,1369,-1,0.8,0.35
27,63,1528,1,0.05,1.4
27,64,2351,-1,0.65,0.0
27,65,1293,1,0.5,0.35
27,66,1543,1,0.35,0.8
27,67,1941,-1,0.8,0.5
27,68,1335,-1,0.5,0.5
27,69,3715,1,0.5,0.35
27,70,4297,-1,0.65,0.2
27,71,1281,-1,1.4,0.8
27,72,1403,-1,0.8,0.0
27,73,1498,-1,0.65,0.2
27,74,1174,1,0.5,1.4
27,75,1038,-1,0.5,0.5
27,76,1214,1,0.65,0.5
27,77,4034,1,0.95,0.65
27,78,1700,1,0.0,0.35
27,79,3601,-1,0.2,0.35
27,120,3267,-1,0.65,0.95
27,121,1221,-1,0.65,0.35
27,122,1337,-1,0.65,0.2
27,123,1500,1,1.25,0.8
27,124,1997,-1,0.65,0.5
27,125,1388,-1,0.65,0.05
27,126,1224,-1,0.5,0.5
27,127,1999,-1,0.65,0.65
27,128,1633,1,0.5,0.8
27,129,2524,1,0.2,0.65
27,130,1251,-1,1.4,0.5
27,131,1523,-1,1.25,0.35
27,132,1481,-1,0.2,0.05
27,133,1757,1,0.65,0.65
27,134,1123,-1,0.65,0.35
27,135,1156,-1,0.5,0.2
27,136,927,-1,0.35,0.0
27,137,2162,-1,0.0,0.5
27,138,1155,1,0.0,0.8
27,139,1423,-1,0.65,0.65
27,140,1274,1,0.5,0.5
27,141,1634,-1,0.35,0.0
27,142,1141,1,0.35,1.1
27,143,1302,-1,0.8,0.65
27,144,1112,1,0.35,1.25
27,145,1050,1,0.5,0.95
27,146,2794,1,0.35,0.5
27,147,1329,-1,0.95,0.0
27,148,1740,1,0.5,0.35
27,149,1077,-1,1.1,0.65
27,150,1823,-1,0.65,0.2
27,151,1159,1,0.5,0.65
27,152,1891,1,0.0,0.65
27,153,1298,-1,0.8,0.8
27,154,1424,1,0.0,0.65
27,155,1129,1,0.5,0.5
27,156,4300,-1,0.65,0.35
27,157,3121,1,0.65,0.5
27,158,1119,1,0.2,0.65
27,159,960,1,1.25,1.4
27,200,2644,-1,0.65,0.65
27,201,1012,-1,0.35,0.65
27,202,1117,-1,0.8,1.4
27,203,2202,-1,0.05,0.0
27,204,1343,1,0.65,0.65
27,205,1163,1,0.0,0.35
27,206,937,1,0.35,0.8
27,207,1255,-1,1.4,0.05
27,208,1188,1,0.35,1.25
27,209,1202,1,0.5,0.5
27,210,1068,-1,0.95,0.65
27,211,2115,-1,0.35,0.5
27,212,1856,1,0.35,0.2
27,213,1099,1,0.65,0.65
27,214,1082,1,0.95,0.65
27,215,1929,-1,0.5,0.5
27,216,944,1,0.2,0.65
27,217,1935,1,0.65,0.5
27,218,1143,1,0.2,0.35
27,219,996,-1,0.5,0.65
27,220,1288,1,0.2,0.65
27,221,1237,-1,0.8,1.25
27,222,2282,-1,0.35,0.65
27,223,964,-1,1.4,1.25
27,224,1414,1,0.65,0.8
27,225,757,1,0.2,0.5
27,226,1569,1,0.0,0.95
27,227,1043,1,0.95,0.5
27,228,2245,-1,0.35,0.5
27,229,1452,1,0.35,0.65
27,230,1411,-1,1.25,0.35
27,231,2792,-1,0.5,0.0
27,232,1076,-1,0.8,0.35
27,233,1366,-1,0.65,0.5
27,234,1130,1,0.5,0.5
27,235,1282,1,0.5,0.65
27,236,1450,-1,0.65,0.65
27,237,990,-1,0.65,0.5
27,238,1119,-1,0.95,0.5
27,239,2234,-1,0.8,0.5
28,40,3425,-1,1.95,0.8
28,41,5439,-1,0.65,0.5
28,42,1720,-1,0.95,1.4
28,43,1913,-1,1.55,1.25
28,44,4599,1,0.65,0.65
28,45,2175,1,0.5,0.65
28,46,2743,1,1.1,0.95
28,47,5296,-1,0.8,1.1
28,48,2112,-1,1.55,0.2
28,49,1486,-1,0.8,1.1
28,50,2069,-1,1.1,0.2
28,51,65,1,1.1,0.35
28,52,3369,1,0.8,0.95
28,53,1853,-1,0.65,0.35
28,54,3303,1,0.2,0.95
28,55,2046,-1,1.4,0.8
28,56,5054,-1,0.8,0.2
28,57,2309,-1,1.55,0.8
28,58,2822,-1,0.5,1.1
28,59,7363,-1,1.1,0.8
28,60,2208,1,0.5,0.95
28,61,2087,1,0.5,1.55
28,62,4382,1,1.1,1.95
28,63,6362,-1,0.95,1.1
28,64,3137,-1,0.95,0.65
28,65,2547,-1,1.1,1.85
28,66,1826,-1,1.25,1.1
28,67,2485,1,0.8,0.8
28,68,5900,1,0.65,1.25
28,69,2514,1,2.45,0.95
28,70,1918,-1,1.25,0.8
28,71,2565,-1,1.25,0.95
28,72,2913,1,1.1,0.95
28,73,1810,1,1.1,1.25
28,74,2227,1,0.2,1.4
28,75,2948,-1,0.35,0.5
28,76,1909,-1,0.5,1.1
28,77,2377,-1,0.95,0.5
28,78,6149,1,0.65,1.1
28,79,3803,1,0.5,0.95
28,120,5183,-1,1.25,1.1
28,121,1494,-1,1.4,1.1
28,122,1966,1,0.8,1.55
28,123,2533,-1,0.8,0.8
28,124,2525,1,0.95,0.65
28,125,4740,-1,1.1,0.95
28,126,2226,1,0.65,0.5
28,127,3155,1,0.95,1.1
28,128,3204,1,0.8,0.5
28,129,3779,-1,1.25,0.95
28,130,2695,-1,1.55,1.1
28,131,2907,1,1.1,1.25
28,132,1869,1,0.95,0.95
28,133,2805,-1,0.8,0.8
28,134,6932,-1,1.25,0.65
28,135,1250,1,0.8,1.4
28,136,3460,1,0.65,1.4
28,137,3171,-1,0.5,0.95
28,138,2860,1,2.45,0.65
28,139,1776,1,1.25,1.55
28,140,1836,1,0.2,0.8
28,141,1614,-1,1.85,0.95
28,142,3235,1,0.8,1.25
28,143,1335,-1,1.1,0.35
28,144,1454,1,0.8,1.95
28,145,3421,1,0.5,0.65
28,146,2655,1,0.8,1.1
28,147,2018,1,0.65,0.65
28,148,1515,-1,0.65,0.95
28,149,1509,-1,0.35,1.1
28,150,1696,-1,1.1,0.5
28,151,3518,-1,1.25,0.5
28,152,2809,1,0.8,1.1
28,153,2136,1,1.1,0.65
28,154,1685,-1,1.4,0.95
28,155,2499,1,0.2,1.1
28,156,5675,1,0.5,0.95
28,157,1740,-1,1.95,1.1
28,158,1411,-1,1.25,1.1
28,159,2134,-1,1.1,1.4
28,200,7350,-1,0.95,1.1
28,201,3333,1,0.8,0.2
28,202,3419,-1,1.1,0.8
28,203,2172,-1,0.5,0.35
28,204,3181,1,0.95,0.2
28,205,2633,-1,1.4,0.65
28,206,6330,1,0.95,0.8
28,207,2330,1,0.95,1.25
28,208,7503,1,1.1,0.95
28,209,2384,-1,0.65,0.95
28,210,2130,1,0.95,0.65
28,211,3240,1,0.95,0.5
28,212,2495,-1,0.95,2.45
28,213,1922,1,1.1,1.55
28,214,2705,-1,0.5,0.8
28,215,1954,1,0.8,0.8
28,216,3054,-1,0.95,0.95
28,217,3337,-1,1.4,0.2
28,218,1650,1,1.4,1.1
28,219,1741,-1,1.85,1.1
28,220,2306,1,1.1,1.4
28,221,5150,-1,1.1,1.25
28,222,2078,1,1.1,0.8
28,223,2328,-1,1.55,1.25
28,224,2194,1,0.2,0.8
28,225,2378,-1,1.55,0.5
28,226,8308,1,0.2,1.55
28,227,2344,1,0.95,1.1
28,228,6825,-1,1.1,0.5
28,229,3431,-1,0.95,0.5
28,230,1966,1,0.95,0.5
28,231,1945,1,0.5,1.25
28,232,3135,1,0.35,1.1
28,233,3539,-1,0.65,0.95
28,234,2596,1,0.35,0.65
28,235,1476,1,0.65,2.45
28,236,5114,1,1.25,1.55
28,237,2925,1,1.1,0.8
28,238,2235,1,0.95,1.85
28,239,2440,1,0.95,1.25
29,0,7111,1,0.5,1.4
29,1,33945,1,1.25,1.7
29,2,6109,1,0.35,0.95
29,3,3374,1,0.5,0.95
29,4,4336,1,0.8,1.1
29,5,2956,1,0.5,0.95
29,6,7367,-1,1.1,0.95
29,7,4784,1,0.95,1.4
29,8,2772,1,0.0,2.15
29,9,10124,1,1.55,0.95
29,10,11435,-1,1.1,0.65
29,11,11269,-1,2.3,1.4
29,12,9419,1,1.4,1.85
29,13,3909,-1,1.1,0.35
29,14,8187,1,0.8,0.8
29,15,19172,-1,1.25,0.8
29,16,15773,1,1.1,1.1
29,17,3452,-1,2.6,0.5
29,18,6223,1,1.25,1.1
29,19,3892,-1,1.1,0.0
29,20,3361,-1,1.1,1.1
29,21,7343,-1,0.8,1.25
29,22,2755,1,0.5,0.95
29,23,3256,1,0.8,0.8
29,24,2297,-1,1.1,0.0
29,25,7873,1,0.35,0.8
29,26,4704,-1,2.6,1.1
29,27,2886,1,0.5,1.7
29,28,2563,-1,0.95,1.4
29,29,2995,1,0.0,0.65
29,30,20658,-1,0.8,1.25
29,31,12138,-1,1.1,1.1
29,32,2992,1,0.5,0.5
29,33,1949,-1,0.95,0.0
29,34,4130,1,0.35,0.5
29,35,8735,1,1.1,0.35
29,36,5870,-1,1.4,0.8
29,37,3969,1,0.95,1.1
29,38,6710,1,0.8,2.45
29,39,14859,1,2.15,1.1
29,80,8041,-1,0.35,1.1
29,81,3066,-1,0.35,0.65
29,82,4360,-1,1.7,1.25
29,83,3496,1,0.15,1.4
29,84,2890,1,1.1,1.55
29,85,9437,1,0.0,0.5
29,86,3401,-1,2.15,0.0
29,87,4197,-1,0.8,0.8
29,88,7472,1,0.65,1.25
29,89,2349,-1,1.1,0.95
29,90,2884,-1,0.95,0.5
29,91,4860,1,1.1,1.1
29,92,2922,-1,2.45,0.8
29,93,2108,-1,0.8,0.8
29,94,2857,-1,0.5,0.35
29,95,1291,1,1.1,2.6
29,96,1437,1,0.35,2.3
29,97,3857,1,1.1,1.4
29,98,4732,-1,1.55,0.35
29,99,2303,1,0.5,1.1
29,100,7581,-1,1.2,0.35
29,101,1926,-1,0.65,0.0
29,102,6325,-1,2.45,1.2
29,103,2120,1,0.35,1.1
29,104,1299,-1,1.25,0.5
29,105,1343,-1,0.95,0.5
29,106,2568,1,0.8,0.8
29,107,1847,1,1.25,1.55
29,108,1827,-1,1.7,0.5
29,109,1786,1,0.8,1.4
29,110,2415,-1,0.65,0.35
29,111,7703,1,1.25,0.8
29,112,3096,1,1.4,2.3
29,113,11118,1,1.1,1.1
29,114,6112,1,0.65,1.85
29,115,3894,-1,0.8,1.1
29,116,1440,1,0.5,2.6
29,117,6536,1,1.25,0.8
29,118,3515,-1,0.35,0.15
29,119,3909,-1,1.25,1.25
29,160,3685,1,0.35,1.55
29,161,1695,-1,0.95,0.35
29,162,3089,-1,1.55,1.1
29,163,2639,-1,1.4,0.15
29,164,3832,-1,0.5,0.0
29,165,2612,1,0.65,0.35
29,166,1435,1,0.0,0.95
29,167,2264,-1,1.55,1.25
29,168,1891,-1,1.85,0.65
29,169,2106,-1,1.4,0.95
29,170,1525,1,0.5,1.25
29,171,3216,-1,1.4,1.1
29,172,2630,1,0.0,1.1
29,173,1993,-1,1.85,1.4
29,174,3829,1,1.25,1.25
29,175,5505,-1,1.4,0.5
29,176,1725,-1,0.95,0.5
29,177,1876,-1,2.3,0.35
29,178,2562,1,1.4,0.95
29,179,3448,1,0.35,0.65
29,180,4481,-1,1.25,0.65
29,181,6133,1,0.95,1.1
29,182,2596,1,0.8,1.25
29,183,4222,-1,1.1,0.8
29,184,2615,1,0.35,1.1
29,185,4245,1,0.65,1.1
29,186,8924,-1,1.1,2.15
29,187,6909,1,0.35,1.2
29,188,2951,1,1.2,2.45
29,189,8714,-1,0.95,1.55
29,190,2416,1,0.15,0.35
29,191,6034,1,1.1,0.8
29,192,3032,-1,1.1,0.5
29,193,2906,-1,0.8,0.35
29,194,2047,-1,1.1,0.35
29,195,1822,1,0.0,1.1
29,196,1918,-1,0.8,0.8
29,197,2955,-1,0.5,0.5
29,198,3366,-1,1.1,1.25
29,199,10736,1,1.1,1.1
31,0,1908,1,0.95,0.5
31,1,2481,-1,0.8,0.95
31,2,2880,1,1.4,0.95
31,3,3793,1,0.2,0.35
31,4,1333,-1,0.8,0.6
31,5,2692,-1,1.1,0.95
31,6,2027,1,0.5,0.95
31,7,4022,-1,0.2,0.35
31,8,2724,1,0.95,1.1
31,9,6172,1,0.0,0.8
31,10,1983,1,0.0,0.95
31,11,1697,1,0.5,1.1
31,12,3018,-1,0.5,0.0
31,13,1783,1,0.95,0.5
31,14,1604,1,0.8,1.1
31,15,2207,-1,0.65,0.0
31,16,2674,1,0.0,1.25
31,17,2506,1,0.95,0.8
31,18,2316,1,0.35,1.1
31,19,3242,-1,0.95,0.35
31,20,2655,-1,0.8,1.1
31,21,3082,-1,0.0,0.0
31,22,1720,1,0.6,1.1
31,23,2461,-1,0.5,0.05
31,24,6341,-1,0.0,1.1
31,25,9649,-1,1.1,0.2
31,26,1898,-1,0.95,0.2
31,27,5674,-1,0.8,0.35
31,28,2794,-1,1.25,0.5
31,29,2199,1,0.05,1.4
31,30,2170,-1,0.8,0.0
31,31,2342,-1,0.5,0.5
31,32,2132,-1,0.95,0.0
31,33,4164,-1,0.5,0.95
31,34,2830,1,0.0,0.5
31,35,1766,-1,1.1,0.95
31,36,3317,-1,1.55,1.1
31,37,2749,-1,0.8,0.5
31,38,1951,-1,0.95,0.95
31,39,2361,-1,0.95,0.35
31,80,3815,-1,0.5,0.0
31,81,1665,-1,0.95,0.05
31,82,1689,1,0.2,0.95
31,83,5042,1,0.95,1.1
31,84,4536,1,0.95,0.8
31,85,1787,1,0.5,0.8
31,86,2262,-1,0.0,0.0
31,87,2005,-1,0.8,0.8
31,88,1956,1,0.35,0.2
31,89,4505,1,0.8,1.4
31,90,2231,-1,0.2,0.5
31,91,1416,1,0.5,0.5
31,92,1551,1,0.2,0.95
31,93,2011,-1,0.8,0.0
31,94,4379,1,0.35,0.8
31,95,1423,1,0.95,1.25
31,96,4833,-1,1.1,0.95
31,97,1374,1,0.0,0.65
31,98,3115,1,0.8,0.8
31,99,1793,1,0.95,0.8
31,100,6910,-1,0.8,0.5
31,101,1563,1,0.0,0.5
31,102,8355,1,0.2,1.1
31,103,1516,-1,0.8,0.5
31,104,1940,-1,0.5,0.0
31,105,2299,-1,1.4,0.0
31,106,10498,1,1.1,0.0
31,107,1778,-1,0.65,1.55
31,108,5679,1,1.25,0.8
31,109,1858,-1,0.95,1.4
31,110,2113,-1,1.1,0.0
31,111,1471,-1,1.25,0.0
31,112,1922,1,0.5,1.25
31,113,1529,-1,0.5,0.95
31,114,1665,-1,1.1,0.2
31,115,5554,-1,1.1,0.8
31,116,1369,1,0.0,0.95
31,117,4034,1,0.35,0.95
31,118,9257,1,0.95,1.1
31,119,4504,-1,0.2,0.05
31,160,2617,1,1.1,0.8
31,161,1412,-1,0.95,0.5
31,162,1448,-1,0.8,1.25
31,163,1230,-1,1.25,0.95
31,164,1114,1,0.0,1.1
31,165,1330,1,0.0,0.0
31,166,1927,1,0.05,0.5
31,167,1582,-1,0.5,0.95
31,168,1601,1,1.1,1.55
31,169,1302,1,0.35,0.95
31,170,6536,1,0.8,0.8
31,171,4034,1,1.4,0.8
31,172,4188,-1,0.95,0.5
31,173,1462,-1,1.4,0.05
31,174,1970,-1,0.0,0.8
31,175,1820,1,0.5,0.5
31,176,8302,1,0.05,0.2
31,177,1882,-1,1.1,0.35
31,178,1358,-1,0.8,0.8
31,179,2853,1,0.0,0.0
31,180,2021,-1,1.1,0.6
31,181,1297,1,0.0,0.5
31,182,2395,1,0.95,1.1
31,183,1599,1,0.95,0.95
31,184,8105,-1,0.35,0.2
31,185,1357,-1,0.5,0.5
31,186,2938,-1,1.1,0.95
31,187,6266,-1,0.8,0.95
31,188,1891,-1,0.8,0.95
31,189,2233,-1,0.95,0.2
31,190,1721,1,0.6,0.8
31,191,1578,1,0.2,1.1
31,192,1220,1,0.0,1.4
31,193,1242,-1,1.1,0.5
31,194,1366,1,1.55,0.65
31,195,3508,1,0.05,0.95
31,196,1436,-1,0.5,0.2
31,197,1395,1,0.5,0.8
31,198,1369,-1,0.95,0.0
31,199,1110,1,0.5,0.8
32,40,3437,-1,1.7,2.0
32,41,1574,-1,0.65,0.8
32,42,1841,1,0.0,0.65
32,43,1472,-1,0.95,1.55
32,44,6201,1,0.95,0.65
32,45,1767,-1,0.65,0.5
32,46,4353,1,1.55,0.2
32,47,3805,-1,0.65,0.65
32,48,9779,-1,2.0,1.1
32,49,2370,1,1.1,1.1
32,50,4067,-1,0.65,0.65
32,51,2046,1,0.0,1.1
32,52,1872,1,0.95,0.95
32,53,1321,-1,1.1,0.45
32,54,1820,-1,0.8,0.5
32,55,4067,-1,0.65,0.5
32,56,2871,-1,0.95,0.0
32,57,3271,-1,0.65,0.65
32,58,2083,-1,1.1,1.55
32,59,3472,-1,1.1,0.65
32,60,2244,-1,0.65,0.8
32,61,3108,-1,0.5,0.0
32,62,2437,-1,0.65,1.1
32,63,3956,1,0.5,0.8
32,64,2942,-1,1.1,0.65
32,65,1276,-1,0.65,0.5
32,66,1420,1,0.65,0.95
32,67,3350,1,1.55,1.1
32,68,1907,-1,0.95,0.5
32,69,2669,1,0.5,2.0
32,70,3838,1,0.65,1.25
32,71,2640,1,1.55,0.65
32,72,2521,-1,1.1,0.95
32,73,3303,1,0.95,0.15
32,74,1862,1,0.65,0.65
32,75,1604,-1,0.15,0.5
32,76,3223,-1,1.55,0.8
32,77,2036,-1,0.8,1.1
32,78,12426,-1,0.65,1.1
32,79,1264,-1,0.65,1.1
32,120,1838,1,0.5,0.15
32,121,2049,1,0.5,0.65
32,122,1727,-1,0.95,0.65
32,123,2123,1,0.5,2.0
32,124,3190,-1,0.95,0.95
32,125,1249,-1,0.95,1.1
32,126,1464,1,2.0,1.7
32,127,1786,1,0.5,1.7
32,128,4234,-1,1.25,0.65
32,129,3708,1,0.5,0.65
32,130,2749,1,1.55,0.65
32,131,1355,-1,0.8,1.25
32,132,2420,-1,0.65,0.5
32,133,2499,1,0.0,1.55
32,134,5827,1,2.0,0.65
32,135,2056,1,0.0,0.5
32,136,1957,1,1.1,0.65
32,137,2253,1,0.5,0.65
32,138,1630,-1,0.65,0.45
32,139,2189,-1,2.0,1.55
32,140,1313,1,0.8,0.65
32,141,1860,-1,1.1,1.55
32,142,2395,-1,0.65,0.95
32,143,1563,1,0.95,0.65
32,144,4231,1,0.5,1.55
32,145,7328,-1,0.0,0.95
32,146,1742,1,0.95,1.1
32,147,2905,1,1.1,0.65
32,148,2894,1,0.8,1.55
32,149,2021,-1,0.15,0.95
32,150,2253,1,0.0,0.2
32,151,2382,-1,0.65,1.1
32,152,2156,1,1.1,0.65
32,153,3401,-1,0.8,1.55
32,154,1905,1,0.95,0.95
32,155,1177,-1,0.65,0.5
32,156,1960,1,0.45,1.1
32,157,2120,-1,2.0,0.5
32,158,1406,1,0.0,1.55
32,159,3300,-1,0.0,0.0
32,200,2817,-1,0.65,2.0
32,201,1891,-1,1.1,0.0
32,202,2356,-1,0.2,1.55
32,203,2166,1,1.1,0.65
32,204,3883,-1,0.65,0.65
32,205,1483,1,0.0,0.95
32,206,1874,1,0.5,0.8
32,207,1784,-1,2.0,0.5
32,208,1551,1,1.55,1.1
32,209,3102,1,1.1,2.0
32,210,1514,1,0.5,0.65
32,211,1830,1,0.8,0.65
32,212,2044,-1,0.8,0.5
32,213,2436,-1,0.95,0.0
32,214,3291,1,0.65,0.65
32,215,1223,1,0.5,0.95
32,216,1105,-1,0.65,1.55
32,217,1676,1,1.55,0.95
32,218,2011,1,1.55,0.8
32,219,1833,1,0.65,0.65
32,220,1647,1,1.1,0.8
32,221,2126,1,0.65,1.1
32,222,1879,-1,0.95,0.95
32,223,1624,1,0.45,0.65
32,224,2532,1,0.0,0.0
32,225,1637,1,1.55,2.0
32,226,1500,-1,1.7,0.5
32,227,2111,-1,1.55,0.0
32,228,2134,-1,0.65,0.65
32,229,1782,-1,0.2,0.0
32,230,2798,-1,0.65,1.1
32,231,2309,-1,0.65,1.55
32,232,1659,-1,0.65,0.0
32,233,3478,-1,1.1,1.1
32,234,2519,1,1.25,0.8
32,235,2088,-1,1.55,0.0
32,236,2521,-1,1.55,0.5
32,237,1261,1,0.5,0.65
32,238,1682,1,1.1,0.95
32,239,2238,-1,0.65,0.95
34,0,8714,-1,3.0,3.0
34,1,4378,-1,1.4,0.95
34,2,7415,-1,1.1,3.0
34,3,4597,-1,0.65,1.4
34,4,2517,-1,2.0,0.95
34,5,2222,-1,2.45,2.0
34,6,2352,-1,2.0,0.0
34,7,3681,-1,2.75,2.9
34,8,4549,-1,3.0,3.0
34,9,3569,1,1.4,2.9
34,10,2612,1,0.95,3.0
34,11,3495,-1,1.25,0.95
34,12,4971,1,0.0,3.0
34,13,6652,-1,0.95,0.95
34,14,2791,1,1.55,2.6
34,15,3801,1,1.85,2.0
34,16,1448,1,0.95,0.95
34,17,6261,-1,3.0,0.95
34,18,5281,-1,1.55,0.95
34,19,5041,-1,2.15,2.0
34,20,3670,1,0.2,0.8
34,21,2575,1,2.0,3.0
34,22,2487,-1,0.5,0.95
34,23,1506,1,0.95,2.75
34,24,1834,-1,1.55,0.5
34,25,2049,-1,3.0,0.95
34,26,2743,1,0.2,2.0
34,27,1523,1,0.95,3.0
34,28,3467,-1,1.55,0.0
34,29,2924,-1,3.0,0.95
34,30,1463,-1,2.6,0.95
34,31,4632,1,0.0,0.95
34,32,2777,1,0.95,3.0
34,33,2657,1,2.0,1.55
34,34,1578,1,0.0,1.1
34,35,2279,1,0.65,1.55
34,36,6952,1,2.0,1.25
34,37,1709,1,0.0,0.0
34,38,3970,-1,0.8,2.9
34,39,3983,1,2.9,2.6
34,80,2858,-1,3.0,0.95
34,81,2422,-1,2.0,1.85
34,82,1225,1,1.85,1.4
34,83,2250,1,0.0,2.0
34,84,1530,-1,1.55,0.65
34,85,1339,1,2.9,0.8
34,86,1950,-1,0.95,0.95
34,87,1356,1,0.95,3.0
34,88,2069,-1,3.0,2.0
34,89,2782,-1,1.55,2.0
34,90,1648,-1,3.0,0.95
34,91,1202,1,0.95,2.6
34,92,2789,1,0.95,2.0
34,93,5581,-1,2.45,0.8
34,94,1726,-1,0.95,1.85
34,95,4274,-1,3.0,3.0
34,96,2813,1,0.95,2.75
34,97,1951,1,2.0,2.75
34,98,940,-1,3.0,0.0
34,99,1636,-1,1.4,0.65
34,100,3438,-1,0.95,2.0
34,101,1607,1,0.95,0.95
34,102,1529,1,2.6,2.9
34,103,2853,-1,0.95,0.5
34,104,9474,1,2.0,1.55
34,105,5642,1,0.95,1.25
34,106,1744,-1,0.0,0.0
34,107,1389,-1,1.25,2.0
34,108,1321,1,0.95,3.0
34,109,1536,1,1.85,3.0
34,110,2787,1,0.5,0.95
34,111,1579,1,1.55,3.0
34,112,4024,-1,3.0,0.95
34,113,2864,-1,3.0,3.0
34,114,1351,1,0.95,0.95
34,115,3140,-1,0.8,0.95
34,116,2025,1,0.95,0.95
34,117,1811,-1,2.9,1.4
34,118,1187,1,0.0,2.15
34,119,3036,-1,2.0,0.5
34,160,1606,1,0.0,1.55
34,161,1766,1,1.85,0.95
34,162,1686,-1,0.95,0.0
34,163,1342,-1,3.0,0.95
34,164,1358,-1,0.95,0.8
34,165,1367,-1,2.0,0.2
34,166,1659,-1,2.75,2.0
34,167,1768,1,3.0,3.0
34,168,1622,-1,0.95,2.0
34,169,1539,-1,2.75,0.95
34,170,1711,-1,1.1,0.0
34,171,1802,1,2.0,2.15
34,172,1543,-1,2.6,1.55
34,173,2737,1,2.0,0.95
34,174,989,1,0.95,2.6
34,175,1769,1,3.0,3.0
34,176,1255,-1,0.95,0.5
34,177,1453,-1,0.8,0.2
34,178,1189,1,0.95,0.95
34,179,1200,1,0.5,2.0
34,180,1125,1,1.4,1.85
34,181,3310,-1,2.0,0.95
34,182,1458,1,2.0,2.45
34,183,1090,-1,2.15,0.0
34,184,1318,-1,0.95,0.95
34,185,1803,-1,1.55,2.0
34,186,2851,-1,3.0,1.1
34,187,1091,1,2.9,2.75
34,188,1535,-1,0.95,1.55
34,189,881,-1,3.0,1.85
34,190,838,-1,3.0,1.55
34,191,952,1,2.6,0.95
34,192,1488,-1,0.95,0.95
34,193,1253,1,0.95,3.0
34,194,1180,1,0.95,3.0
34,195,1772,-1,2.75,0.95
34,196,1550,-1,0.5,1.55
34,197,1010,1,0.95,1.4
34,198,1210,1,0.8,2.45
34,199,1611,-1,0.95,0.95
35,40,2917,-1,2.0,0.95
35,41,3504,1,0.95,1.85
35,42,4543,1,0.65,0.8
35,43,4975,-1,1.85,0.5
35,44,5817,1,0.65,1.1
35,45,2361,1,0.5,0.5
35,46,5476,-1,0.65,1.25
35,47,2072,-1,2.75,1.25
35,48,4965,-1,0.95,0.65
35,49,4201,1,0.65,1.4
35,50,5258,1,1.85,1.4
35,51,7786,-1,2.0,1.1
35,52,5668,-1,2.0,1.25
35,53,3212,1,2.45,1.1
35,54,6939,-1,2.0,2.0
35,55,2346,1,0.5,1.55
35,56,2072,1,0.5,0.65
35,57,3012,1,1.1,0.65
35,58,3675,1,0.95,0.8
35,59,6583,-1,2.0,0.8
35,60,5290,1,0.5,2.0
35,61,5446,-1,1.25,0.5
35,62,5345,1,0.95,1.1
35,63,7740,-1,0.8,0.65
35,64,5653,1,1.1,1.1
35,65,5366,-1,1.1,0.95
35,66,5371,-1,0.95,1.7
35,67,5036,1,1.55,0.65
35,68,2415,-1,0.95,0.95
35,69,4180,1,1.1,0.65
35,70,2941,1,0.65,0.95
35,71,2476,1,0.5,2.45
35,72,7361,1,2.0,2.6
35,73,3518,-1,0.95,0.65
35,74,4217,-1,2.0,0.8
35,75,2952,1,1.1,0.95
35,76,5377,1,0.8,0.65
35,77,1980,-1,1.55,1.1
35,78,4057,1,1.7,1.55
35,79,9678,-1,0.95,2.0
35,120,5485,1,0.8,0.95
35,121,4688,1,1.1,2.0
35,122,2575,1,0.5,1.25
35,123,6537,1,2.6,0.8
35,124,6484,1,1.1,2.0
35,125,3022,-1,0.95,0.35
35,126,6085,-1,1.1,1.55
35,127,4060,1,1.25,0.65
35,128,4339,1,1.1,0.65
35,129,2191,-1,2.45,0.5
35,130,2684,1,0.5,0.5
35,131,4395,1,1.85,2.0
35,132,1964,1,0.8,2.0
35,133,1442,-1,1.55,0.5
35,134,2537,1,2.0,2.0
35,135,6978,-1,0.95,1.1
35,136,1193,-1,0.65,0.5
35,137,4139,-1,0.65,1.1
35,138,4694,1,1.25,2.0
35,139,3001,-1,1.4,0.65
35,140,2756,-1,0.65,0.95
35,141,3763,1,0.8,0.65
35,142,3310,-1,2.0,0.35
35,143,3880,1,0.95,2.0
35,144,2908,-1,2.75,0.95
35,145,1819,-1,0.65,1.55
35,146,2119,-1,0.65,0.95
35,147,2914,-1,1.1,0.95
35,148,1714,1,0.8,2.0
35,149,6710,-1,1.55,0.5
35,150,1867,1,0.65,0.95
35,151,5046,1,0.35,2.0
35,152,3754,-1,0.35,0.95
35,153,1970,1,1.25,2.75
35,154,3659,1,1.1,0.8
35,155,1978,1,1.25,2.0
35,156,4997,-1,1.1,1.1
35,157,2579,1,0.5,0.65
35,158,3715,1,0.5,1.85
35,159,5174,-1,0.65,0.8
35,200,4110,-1,2.0,0.95
35,201,4663,1,0.95,1.85
35,202,2029,1,0.65,0.8
35,203,3071,-1,1.85,0.5
35,204,5185,1,0.65,1.1
35,205,6989,1,0.5,0.5
35,206,3061,-1,0.65,1.25
35,207,2334,-1,2.75,1.25
35,208,4556,-1,0.95,0.65
35,209,2180,1,0.65,1.4
35,210,3245,1,1.85,1.4
35,211,4539,-1,2.0,1.1
35,212,5032,-1,2.0,1.25
35,213,2979,1,2.45,1.1
35,214,2209,-1,2.0,2.0
35,215,2813,1,0.5,1.55
35,216,1594,1,0.5,0.65
35,217,4196,1,1.1,0.65
35,218,3355,1,0.95,0.8
35,219,4956,-1,2.0,0.8
35,220,2579,1,0.5,2.0
35,221,4149,1,1.25,0.5
35,222,2785,1,0.95,1.1
35,223,5262,1,0.8,0.65
35,224,4217,1,1.1,1.1
35,225,4223,-1,1.1,0.95
35,226,2335,-1,0.95,1.7
35,227,3289,1,1.55,0.65
35,228,2449,-1,0.95,0.95
35,229,3210,1,1.1,0.65
35,230,2363,1,0.65,0.95
35,231,4057,1,0.5,2.45
35,232,5577,1,2.0,2.6
35,233,2254,1,0.95,0.65
35,234,2996,-1,2.0,0.8
35,235,2767,1,1.1,0.95
35,236,4317,1,0.8,0.65
35,237,2777,-1,1.55,1.1
35,238,2574,1,1.7,1.55
35,239,2762,1,0.95,2.0
36,0,3623,1,0.95,1.1
36,1,4017,1,0.95,1.25
36,2,2373,-1,0.8,0.8
36,3,4714,-1,1.1,0.8
36,4,2788,1,0.95,1.1
36,5,5247,1,1.1,1.25
36,6,3628,-1,1.25,0.8
36,7,2877,-1,1.25,1.55
36,8,2493,1,1.55,0.65
36,9,3252,1,0.8,1.25
36,10,3070,-1,2.0,1.4
36,11,2026,-1,1.7,1.7
36,12,2406,1,0.5,1.1
36,13,1732,-1,0.8,1.55
36,14,1897,-1,1.1,0.8
36,15,5175,1,1.25,0.8
36,16,2070,-1,1.1,1.25
36,17,3089,-1,1.7,1.1
36,18,2017,-1,1.1,1.25
36,19,3367,1,1.1,1.1
36,20,2607,1,0.95,1.1
36,21,1931,1,0.95,0.8
36,22,3657,-1,1.7,1.1
36,23,3806,-1,2.0,0.8
36,24,6361,-1,0.8,1.1
36,25,3210,1,0.8,1.4
36,26,5723,-1,1.55,0.8
36,27,2940,-1,1.25,0.8
36,28,639,-1,1.7,1.25
36,29,4636,-1,0.95,1.1
36,30,1729,-1,1.7,0.95
36,31,2868,1,0.8,0.8
36,32,1568,-1,0.8,1.25
36,33,2495,-1,0.95,0.95
36,34,1470,-1,0.65,0.95
36,35,3695,1,0.95,0.8
36,36,2112,-1,0.8,0.8
36,37,3559,-1,1.25,1.1
36,38,3224,1,1.1,1.25
36,39,1581,-1,1.25,2.15
36,80,5120,-1,1.25,0.95
36,81,2286,-1,1.55,0.8
36,82,4756,-1,0.8,0.95
36,83,2604,1,1.1,1.7
36,84,5451,1,1.7,0.95
36,85,1921,-1,1.25,1.1
36,86,3510,1,0.8,0.95
36,87,2106,-1,1.25,1.7
36,88,3600,1,0.95,1.7
36,89,4568,1,2.15,1.25
36,90,5080,-1,0.8,2.0
36,91,4753,1,1.1,1.25
36,92,2928,1,1.25,1.1
36,93,4488,1,0.95,0.5
36,94,3548,1,0.8,2.0
36,95,4946,-1,1.7,0.8
36,96,1853,-1,0.8,0.8
36,97,2153,1,1.25,1.7
36,98,1783,-1,1.4,0.8
36,99,2052,1,2.15,0.8
36,100,6710,-1,0.8,0.8
36,101,1381,-1,1.25,2.0
36,102,2520,-1,1.25,2.0
36,103,4028,1,0.95,1.25
36,104,2755,1,0.8,1.1
36,105,1867,1,1.1,0.8
36,106,1915,1,0.8,1.25
36,107,1781,-1,1.1,1.1
36,108,4124,-1,1.1,0.95
36,109,4803,1,0.8,1.1
36,110,2029,1,1.7,0.8
36,111,2234,1,1.55,1.55
36,112,2111,-1,0.8,0.95
36,113,3826,-1,1.25,1.1
36,114,1799,-1,0.95,0.95
36,115,2236,1,0.95,2.0
36,116,5120,-1,1.1,0.95
36,117,2093,1,1.25,1.55
36,118,2179,1,0.8,1.25
36,119,2487,1,0.95,0.95
36,160,2714,1,0.8,1.25
36,161,2357,1,0.8,0.8
36,162,2021,1,0.95,0.65
36,163,1550,-1,0.65,1.55
36,164,1564,1,0.95,0.95
36,165,1883,1,0.8,1.55
36,166,2328,1,1.1,0.95
36,167,1972,-1,1.25,0.95
36,168,2753,1,0.8,0.8
36,169,2157,-1,0.5,0.95
36,170,2620,1,1.25,0.8
36,171,2088,-1,1.25,0.95
36,172,2136,1,0.95,1.1
36,173,2236,1,2.0,0.8
36,174,2502,1,0.95,1.25
36,175,1562,-1,0.8,0.8
36,176,2116,-1,1.25,0.8
36,177,2649,-1,1.1,0.95
36,178,3566,1,1.25,1.1
36,179,2881,-1,2.0,1.25
36,180,2103,1,0.8,0.8
36,181,2377,-1,1.7,1.25
36,182,1481,-1,1.55,1.55
36,183,2388,-1,1.7,1.7
36,184,1359,-1,2.0,0.95
36,185,2880,1,1.4,2.0
36,186,2310,1,1.55,0.8
36,187,1607,-1,0.8,1.7
36,188,1214,1,1.55,1.25
36,189,1696,-1,1.1,0.5
36,190,2033,1,0.8,1.7
36,191,2023,1,0.8,1.55
36,192,2288,1,2.0,1.25
36,193,2691,1,0.8,0.8
36,194,1592,-1,1.1,1.7
36,195,2044,-1,0.95,1.7
36,196,2946,-1,0.8,2.15
36,197,2553,1,1.1,0.95
36,198,1492,-1,0.95,0.8
36,199,3785,-1,1.55,1.25
39,40,6039,-1,0.05,2.9
39,41,4235,-1,1.1,0.65
39,42,1721,-1,2.15,2.0
39,43,3880,1,0.65,0.5
39,44,5161,-1,2.9,2.3
39,45,2435,-1,2.0,2.6
39,46,2053,-1,2.0,0.65
39,47,2808,-1,2.3,1.55
39,48,2466,1,1.85,2.0
39,49,2533,1,0.95,2.0
39,50,3087,1,2.0,1.55
39,51,4044,1,2.3,2.0
39,52,3717,-1,3.0,2.9
39,53,4197,-1,2.0,3.0
39,54,1951,-1,1.85,0.65
39,55,2636,1,1.25,2.0
39,56,5609,1,3.0,2.15
39,57,3842,-1,2.0,0.0
39,58,2590,1,2.6,0.0
39,59,4552,-1,2.15,0.2
39,60,5707,1,2.3,2.0
39,61,2032,-1,2.9,0.95
39,62,3916,1,0.65,2.15
39,63,3903,1,0.5,2.45
39,64,5606,-1,2.0,1.7
39,65,7210,1,0.05,0.95
39,66,2270,-1,0.2,0.5
39,67,6764,-1,0.95,0.2
39,68,2622,-1,1.55,2.9
39,69,2722,1,0.0,2.15
39,70,3626,1,0.0,0.0
39,71,6235,-1,3.0,1.55
39,72,2322,1,2.45,2.45
39,73,3888,1,0.2,2.15
39,74,2585,-1,2.15,2.3
39,75,3448,1,2.15,2.0
39,76,5957,1,2.15,2.3
39,77,3157,1,2.45,1.7
39,78,5984,-1,2.3,0.65
39,79,3440,-1,2.9,2.45
39,120,3665,1,0.0,0.05
39,121,3219,-1,0.65,1.1
39,122,3585,1,2.0,3.0
39,123,4056,1,0.0,2.0
39,124,2483,-1,2.3,2.15
39,125,2924,-1,2.3,0.95
39,126,3935,-1,0.5,2.0
39,127,3444,-1,2.0,2.15
39,128,9235,-1,2.3,2.0
39,129,5697,1,0.0,2.45
39,130,5398,1,2.9,0.65
39,131,2416,-1,0.5,0.2
39,132,2498,-1,0.65,0.35
39,133,2454,-1,0.0,0.0
39,134,6321,-1,0.65,1.85
39,135,8417,1,2.0,1.85
39,136,2554,-1,2.0,1.25
39,137,5220,1,1.55,2.3
39,138,7288,-1,2.3,2.15
39,139,4805,1,2.45,0.5
39,140,2752,-1,2.0,0.95
39,141,4018,1,1.55,1.25
39,142,1675,-1,2.3,0.0
39,143,4835,-1,1.1,3.0
39,144,1641,1,0.35,2.45
39,145,7610,1,2.3,2.9
39,146,3286,-1,1.55,0.0
39,147,4550,1,2.15,0.2
39,148,4459,-1,1.7,2.45
39,149,3765,1,0.0,2.0
39,150,6405,-1,0.65,2.0
39,151,2385,1,0.95,0.2
39,152,4429,-1,2.45,3.0
39,153,6297,1,2.3,2.15
39,154,2278,-1,2.15,0.0
39,155,3901,-1,0.2,2.3
39,156,2534,-1,3.0,2.0
39,157,1524,1,0.05,3.0
39,158,4478,1,2.0,2.9
39,159,3472,-1,2.9,3.0
39,200,9789,-1,2.0,0.0
39,201,1429,-1,2.6,2.0
39,202,4597,1,2.3,0.2
39,203,4851,-1,3.0,2.45
39,204,3562,1,2.15,0.65
39,205,2518,1,2.15,2.3
39,206,1884,-1,2.45,0.35
39,207,1122,1,0.35,0.65
39,208,2179,-1,2.9,1.55
39,209,7205,1,2.0,2.3
39,210,2713,-1,2.15,3.0
39,211,2609,1,0.95,2.9
39,212,2694,-1,2.0,2.3
39,213,2761,1,1.55,2.0
39,214,2285,1,2.0,0.5
39,215,1613,-1,0.95,0.05
39,216,2841,1,0.2,0.95
39,217,2258,-1,0.65,2.3
39,218,1243,1,0.0,2.6
39,219,1767,-1,2.45,0.0
39,220,2423,1,3.0,1.1
39,221,1217,-1,1.7,2.0
39,222,3420,1,2.9,2.0
39,223,8198,-1,0.65,2.9
39,224,5417,1,2.45,2.9
39,225,1100,1,0.0,1.55
39,226,1789,-1,3.0,0.05
39,227,4438,1,2.0,2.3
39,228,3252,1,2.0,2.15
39,229,4139,-1,2.9,0.05
39,230,2098,-1,0.2,0.95
39,231,2920,-1,3.0,2.0
39,232,3779,-1,1.25,1.55
39,233,1952,1,0.2,2.15
39,234,2133,-1,0.5,0.65
39,235,1395,1,1.55,3.0
39,236,1213,1,0.0,2.3
39,237,3394,-1,0.05,0.0
39,238,5280,1,2.45,2.45
39,239,1905,-1,0.95,2.3
