index,parcode,trial,rt,choice,item_left,item_right,BlockCond,zLValue,zRValue,binLValue,binRValue
0,1,0,3327,1,0.95,2.0,2.0,-1.2378809621020572,1.1361373213813344,0.0,5.0
1,1,1,3424,1,2.3,1.7,2.0,1.8144282595194468,0.4578463832432223,5.0,4.0
2,1,2,3691,1,1.7,1.25,2.0,0.4578463832432229,-0.5595900239639454,4.0,1.0
3,1,3,8144,-1,1.55,2.3,2.0,0.11870091417416709,1.8144282595194459,3.0,5.0
4,1,4,6559,-1,2.0,2.0,2.0,1.136137321381335,1.1361373213813344,5.0,5.0
5,1,5,5595,-1,0.65,1.25,2.0,-1.9161719002401691,-0.5595900239639454,0.0,1.0
6,1,6,2470,1,1.55,1.1,2.0,0.11870091417416709,-0.8987354930330013,3.0,0.0
7,1,7,6091,1,0.95,0.65,2.0,-1.2378809621020572,-1.9161719002401694,0.0,0.0
8,1,8,4669,1,1.55,1.7,2.0,0.11870091417416709,0.4578463832432223,3.0,4.0
9,1,9,4001,1,2.0,1.1,2.0,1.136137321381335,-0.8987354930330013,5.0,0.0
10,1,10,3301,-1,1.1,1.1,2.0,-0.8987354930330009,-0.8987354930330013,0.0,0.0
11,1,11,2867,-1,1.4,2.0,2.0,-0.22044455489488926,1.1361373213813344,2.0,5.0
12,1,12,3117,1,1.85,1.1,2.0,0.7969918523122793,-0.8987354930330013,4.0,0.0
13,1,13,10424,1,1.7,2.0,2.0,0.4578463832432229,1.1361373213813344,4.0,5.0
14,1,14,2754,-1,1.25,1.55,2.0,-0.5595900239639451,0.11870091417416655,1.0,3.0
15,1,15,5836,1,2.0,1.7,2.0,1.136137321381335,0.4578463832432223,5.0,4.0
16,1,16,3931,1,1.85,1.7,2.0,0.7969918523122793,0.4578463832432223,4.0,4.0
17,1,17,3602,1,1.55,0.8,2.0,0.11870091417416709,-1.5770264311711133,3.0,0.0
18,1,18,5674,-1,1.7,1.4,2.0,0.4578463832432229,-0.2204445548948897,4.0,2.0
19,1,19,2567,1,1.7,1.1,2.0,0.4578463832432229,-0.8987354930330013,4.0,0.0
20,1,20,2097,-1,1.1,1.55,2.0,-0.8987354930330009,0.11870091417416655,0.0,3.0
21,1,21,3641,-1,0.95,0.8,2.0,-1.2378809621020572,-1.5770264311711133,0.0,0.0
22,1,22,4550,1,1.7,1.55,2.0,0.4578463832432229,0.11870091417416655,4.0,3.0
23,1,23,2973,1,1.7,1.4,2.0,0.4578463832432229,-0.2204445548948897,4.0,2.0
24,1,24,2824,-1,1.25,1.7,2.0,-0.5595900239639451,0.4578463832432223,1.0,4.0
25,1,25,3643,-1,2.0,2.3,2.0,1.136137321381335,1.8144282595194459,5.0,5.0
26,1,26,2188,1,1.85,0.65,2.0,0.7969918523122793,-1.9161719002401694,4.0,0.0
27,1,27,3321,1,1.85,1.1,2.0,0.7969918523122793,-0.8987354930330013,4.0,0.0
28,1,28,6784,-1,1.85,2.0,2.0,0.7969918523122793,1.1361373213813344,4.0,5.0
29,1,29,2314,-1,1.1,2.3,2.0,-0.8987354930330009,1.8144282595194459,0.0,5.0
30,1,30,2952,-1,1.1,2.0,2.0,-0.8987354930330009,1.1361373213813344,0.0,5.0
31,1,31,8388,-1,1.25,1.4,2.0,-0.5595900239639451,-0.2204445548948897,1.0,2.0
32,1,32,5341,1,1.25,1.85,2.0,-0.5595900239639451,0.7969918523122785,1.0,4.0
33,1,33,2183,1,1.1,0.95,2.0,-0.8987354930330009,-1.2378809621020574,0.0,0.0
34,1,34,3207,-1,0.95,1.85,2.0,-1.2378809621020572,0.7969918523122785,0.0,4.0
35,1,35,3224,1,1.1,1.55,2.0,-0.8987354930330009,0.11870091417416655,0.0,3.0
36,1,36,3476,1,1.7,1.85,2.0,0.4578463832432229,0.7969918523122785,4.0,4.0
37,1,37,2295,-1,0.65,1.7,2.0,-1.9161719002401691,0.4578463832432223,0.0,4.0
38,1,38,3513,-1,1.55,2.3,2.0,0.11870091417416709,1.8144282595194459,3.0,5.0
39,1,39,4458,1,1.1,0.95,2.0,-0.8987354930330009,-1.2378809621020574,0.0,0.0
40,1,40,2009,-1,1.1,0.95,1.0,-0.8987354930330009,-1.2378809621020574,0.0,0.0
41,1,41,3371,-1,2.0,1.7,1.0,1.136137321381335,0.4578463832432223,5.0,4.0
42,1,42,1700,1,1.1,2.3,1.0,-0.8987354930330009,1.8144282595194459,0.0,5.0
43,1,43,7466,1,1.25,1.4,1.0,-0.5595900239639451,-0.2204445548948897,1.0,2.0
44,1,44,1889,1,2.0,2.3,1.0,1.136137321381335,1.8144282595194459,5.0,5.0
45,1,45,2227,1,1.7,1.85,1.0,0.4578463832432229,0.7969918523122785,4.0,4.0
46,1,46,4259,-1,1.85,0.65,1.0,0.7969918523122793,-1.9161719002401694,4.0,0.0
47,1,47,3505,-1,1.55,0.8,1.0,0.11870091417416709,-1.5770264311711133,3.0,0.0
48,1,48,2548,-1,1.55,1.1,1.0,0.11870091417416709,-0.8987354930330013,3.0,0.0
49,1,49,3226,1,1.1,2.0,1.0,-0.8987354930330009,1.1361373213813344,0.0,5.0
50,1,50,4604,-1,1.85,1.1,1.0,0.7969918523122793,-0.8987354930330013,4.0,0.0
51,1,51,6333,-1,0.95,2.0,1.0,-1.2378809621020572,1.1361373213813344,0.0,5.0
52,1,52,5716,-1,0.95,0.8,1.0,-1.2378809621020572,-1.5770264311711133,0.0,0.0
53,1,53,3562,-1,2.0,1.1,1.0,1.136137321381335,-0.8987354930330013,5.0,0.0
54,1,54,2447,-1,1.85,1.1,1.0,0.7969918523122793,-0.8987354930330013,4.0,0.0
55,1,55,2120,1,1.25,1.85,1.0,-0.5595900239639451,0.7969918523122785,1.0,4.0
56,1,56,6932,1,2.0,2.0,1.0,1.136137321381335,1.1361373213813344,5.0,5.0
57,1,57,4274,1,1.25,1.7,1.0,-0.5595900239639451,0.4578463832432223,1.0,4.0
58,1,58,6854,-1,1.7,1.4,1.0,0.4578463832432229,-0.2204445548948897,4.0,2.0
59,1,59,6698,-1,1.1,1.1,1.0,-0.8987354930330009,-0.8987354930330013,0.0,0.0
60,1,60,2913,-1,1.1,0.95,1.0,-0.8987354930330009,-1.2378809621020574,0.0,0.0
61,1,61,4513,-1,1.7,1.55,1.0,0.4578463832432229,0.11870091417416655,4.0,3.0
62,1,62,2110,1,1.85,2.0,1.0,0.7969918523122793,1.1361373213813344,4.0,5.0
63,1,63,3385,-1,1.7,1.4,1.0,0.4578463832432229,-0.2204445548948897,4.0,2.0
64,1,64,2456,1,1.4,2.0,1.0,-0.22044455489488926,1.1361373213813344,2.0,5.0
65,1,65,2136,-1,1.85,1.7,1.0,0.7969918523122793,0.4578463832432223,4.0,4.0
66,1,66,7010,1,1.1,1.55,1.0,-0.8987354930330009,0.11870091417416655,0.0,3.0
67,1,67,4784,-1,0.95,0.65,1.0,-1.2378809621020572,-1.9161719002401694,0.0,0.0
68,1,68,2697,1,1.1,1.55,1.0,-0.8987354930330009,0.11870091417416655,0.0,3.0
69,1,69,4654,1,1.25,1.55,1.0,-0.5595900239639451,0.11870091417416655,1.0,3.0
70,1,70,1916,1,1.55,2.3,1.0,0.11870091417416709,1.8144282595194459,3.0,5.0
71,1,71,2033,-1,1.7,1.25,1.0,0.4578463832432229,-0.5595900239639454,4.0,1.0
72,1,72,1441,1,0.95,1.85,1.0,-1.2378809621020572,0.7969918523122785,0.0,4.0
73,1,73,3579,1,0.65,1.25,1.0,-1.9161719002401691,-0.5595900239639454,0.0,1.0
74,1,74,7377,1,1.7,2.0,1.0,0.4578463832432229,1.1361373213813344,4.0,5.0
75,1,75,2921,-1,2.3,1.7,1.0,1.8144282595194468,0.4578463832432223,5.0,4.0
76,1,76,6398,-1,1.55,2.3,1.0,0.11870091417416709,1.8144282595194459,3.0,5.0
77,1,77,2919,1,0.65,1.7,1.0,-1.9161719002401691,0.4578463832432223,0.0,4.0
78,1,78,4737,-1,1.55,1.7,1.0,0.11870091417416709,0.4578463832432223,3.0,4.0
79,1,79,3459,-1,1.7,1.1,1.0,0.4578463832432229,-0.8987354930330013,4.0,0.0
80,1,80,2348,1,1.55,1.1,2.0,0.11870091417416709,-0.8987354930330013,3.0,0.0
81,1,81,2809,-1,1.4,1.7,2.0,-0.22044455489488926,0.4578463832432223,2.0,4.0
82,1,82,1992,-1,1.1,1.7,2.0,-0.8987354930330009,0.4578463832432223,0.0,4.0
83,1,83,1534,1,1.85,0.95,2.0,0.7969918523122793,-1.2378809621020574,4.0,0.0
84,1,84,3023,-1,0.95,2.3,2.0,-1.2378809621020572,1.8144282595194459,0.0,5.0
85,1,85,3452,-1,2.0,2.0,2.0,1.136137321381335,1.1361373213813344,5.0,5.0
86,1,86,3961,1,2.0,1.55,2.0,1.136137321381335,0.11870091417416655,5.0,3.0
87,1,87,2636,1,2.0,1.1,2.0,1.136137321381335,-0.8987354930330013,5.0,0.0
88,1,88,1898,1,2.0,1.1,2.0,1.136137321381335,-0.8987354930330013,5.0,0.0
89,1,89,1725,1,2.3,1.1,2.0,1.8144282595194468,-0.8987354930330013,5.0,0.0
90,1,90,4336,1,2.3,2.0,2.0,1.8144282595194468,1.1361373213813344,5.0,5.0
91,1,91,2037,-1,0.95,1.1,2.0,-1.2378809621020572,-0.8987354930330013,0.0,0.0
92,1,92,2479,-1,0.35,1.85,2.0,-2.5944628383782815,0.7969918523122785,0.0,4.0
93,1,93,3389,1,2.3,1.55,2.0,1.8144282595194468,0.11870091417416655,5.0,3.0
94,1,94,2339,-1,1.7,2.0,2.0,0.4578463832432229,1.1361373213813344,4.0,5.0
95,1,95,3609,-1,1.85,1.85,2.0,0.7969918523122793,0.7969918523122785,4.0,4.0
96,1,96,7371,1,2.3,1.55,2.0,1.8144282595194468,0.11870091417416655,5.0,3.0
97,1,97,2520,-1,1.55,2.0,2.0,0.11870091417416709,1.1361373213813344,3.0,5.0
98,1,98,1761,1,2.0,1.4,2.0,1.136137321381335,-0.2204445548948897,5.0,2.0
99,1,99,2593,1,1.85,1.7,2.0,0.7969918523122793,0.4578463832432223,4.0,4.0
100,1,100,5772,1,1.55,1.1,2.0,0.11870091417416709,-0.8987354930330013,3.0,0.0
101,1,101,1945,-1,1.1,1.85,2.0,-0.8987354930330009,0.7969918523122785,0.0,4.0
102,1,102,1621,1,1.1,0.35,2.0,-0.8987354930330009,-2.594462838378281,0.0,0.0
103,1,103,2952,1,1.55,1.4,2.0,0.11870091417416709,-0.2204445548948897,3.0,2.0
104,1,104,2725,-1,1.25,2.0,2.0,-0.5595900239639451,1.1361373213813344,1.0,5.0
105,1,105,2591,-1,1.1,1.55,2.0,-0.8987354930330009,0.11870091417416655,0.0,3.0
106,1,106,3523,1,1.4,1.1,2.0,-0.22044455489488926,-0.8987354930330013,2.0,0.0
107,1,107,7082,-1,1.25,1.1,2.0,-0.5595900239639451,-0.8987354930330013,1.0,0.0
108,1,108,4066,1,1.55,1.25,2.0,0.11870091417416709,-0.5595900239639454,3.0,1.0
109,1,109,2602,-1,1.25,2.0,2.0,-0.5595900239639451,1.1361373213813344,1.0,5.0
110,1,110,3239,1,1.4,1.25,2.0,-0.22044455489488926,-0.5595900239639454,2.0,1.0
111,1,111,1943,-1,1.55,1.55,2.0,0.11870091417416709,0.11870091417416655,3.0,3.0
112,1,112,3627,-1,1.85,2.0,2.0,0.7969918523122793,1.1361373213813344,4.0,5.0
113,1,113,6245,-1,1.7,1.55,2.0,0.4578463832432229,0.11870091417416655,4.0,3.0
114,1,114,4574,1,1.85,1.55,2.0,0.7969918523122793,0.11870091417416655,4.0,3.0
115,1,115,4327,1,1.7,0.65,2.0,0.4578463832432229,-1.9161719002401694,4.0,0.0
116,1,116,6247,-1,1.1,2.0,2.0,-0.8987354930330009,1.1361373213813344,0.0,5.0
117,1,117,2353,-1,1.1,1.25,2.0,-0.8987354930330009,-0.5595900239639454,0.0,1.0
118,1,118,4758,-1,0.95,1.55,2.0,-1.2378809621020572,0.11870091417416655,0.0,3.0
119,1,119,2715,-1,1.1,1.85,2.0,-0.8987354930330009,0.7969918523122785,0.0,4.0
120,1,120,3454,1,1.85,1.85,1.0,0.7969918523122793,0.7969918523122785,4.0,4.0
121,1,121,2478,1,1.7,1.55,1.0,0.4578463832432229,0.11870091417416655,4.0,3.0
122,1,122,1728,1,1.1,1.85,1.0,-0.8987354930330009,0.7969918523122785,0.0,4.0
123,1,123,2014,-1,1.85,1.7,1.0,0.7969918523122793,0.4578463832432223,4.0,4.0
124,1,124,519,1,0.95,1.1,1.0,-1.2378809621020572,-0.8987354930330013,0.0,0.0
125,1,125,5492,1,1.1,1.25,1.0,-0.8987354930330009,-0.5595900239639454,0.0,1.0
126,1,126,3216,1,1.1,1.7,1.0,-0.8987354930330009,0.4578463832432223,0.0,4.0
127,1,127,2185,-1,1.4,1.1,1.0,-0.22044455489488926,-0.8987354930330013,2.0,0.0
128,1,128,1467,-1,2.3,2.0,1.0,1.8144282595194468,1.1361373213813344,5.0,5.0
129,1,129,1707,-1,1.7,0.65,1.0,0.4578463832432229,-1.9161719002401694,4.0,0.0
130,1,130,1472,1,1.1,1.55,1.0,-0.8987354930330009,0.11870091417416655,0.0,3.0
131,1,131,2425,-1,2.0,1.1,1.0,1.136137321381335,-0.8987354930330013,5.0,0.0
132,1,132,5621,1,2.3,1.55,1.0,1.8144282595194468,0.11870091417416655,5.0,3.0
133,1,133,3216,1,0.95,1.55,1.0,-1.2378809621020572,0.11870091417416655,0.0,3.0
134,1,134,3167,1,0.95,2.3,1.0,-1.2378809621020572,1.8144282595194459,0.0,5.0
135,1,135,1939,-1,1.1,0.35,1.0,-0.8987354930330009,-2.594462838378281,0.0,0.0
136,1,136,2066,-1,1.55,1.4,1.0,0.11870091417416709,-0.2204445548948897,3.0,2.0
137,1,137,1561,1,1.25,2.0,1.0,-0.5595900239639451,1.1361373213813344,1.0,5.0
138,1,138,2037,-1,1.85,1.55,1.0,0.7969918523122793,0.11870091417416655,4.0,3.0
139,1,139,3620,1,1.85,2.0,1.0,0.7969918523122793,1.1361373213813344,4.0,5.0
140,1,140,1235,1,0.35,1.85,1.0,-2.5944628383782815,0.7969918523122785,0.0,4.0
141,1,141,3726,1,1.4,1.7,1.0,-0.22044455489488926,0.4578463832432223,2.0,4.0
142,1,142,1764,1,1.25,1.1,1.0,-0.5595900239639451,-0.8987354930330013,1.0,0.0
143,1,143,4016,-1,2.0,1.4,1.0,1.136137321381335,-0.2204445548948897,5.0,2.0
144,1,144,2365,1,1.1,2.0,1.0,-0.8987354930330009,1.1361373213813344,0.0,5.0
145,1,145,1583,1,1.55,1.55,1.0,0.11870091417416709,0.11870091417416655,3.0,3.0
146,1,146,5406,-1,1.55,1.25,1.0,0.11870091417416709,-0.5595900239639454,3.0,1.0
147,1,147,2418,1,1.25,2.0,1.0,-0.5595900239639451,1.1361373213813344,1.0,5.0
148,1,148,5198,-1,1.4,1.25,1.0,-0.22044455489488926,-0.5595900239639454,2.0,1.0
149,1,149,4101,1,1.1,1.85,1.0,-0.8987354930330009,0.7969918523122785,0.0,4.0
150,1,150,3167,1,1.55,2.0,1.0,0.11870091417416709,1.1361373213813344,3.0,5.0
151,1,151,1675,-1,1.85,0.95,1.0,0.7969918523122793,-1.2378809621020574,4.0,0.0
152,1,152,1655,1,1.7,2.0,1.0,0.4578463832432229,1.1361373213813344,4.0,5.0
153,1,153,1870,-1,1.55,1.1,1.0,0.11870091417416709,-0.8987354930330013,3.0,0.0
154,1,154,2637,-1,1.55,1.1,1.0,0.11870091417416709,-0.8987354930330013,3.0,0.0
155,1,155,3613,1,2.0,2.0,1.0,1.136137321381335,1.1361373213813344,5.0,5.0
156,1,156,1854,-1,2.3,1.55,1.0,1.8144282595194468,0.11870091417416655,5.0,3.0
157,1,157,1999,-1,2.0,1.55,1.0,1.136137321381335,0.11870091417416655,5.0,3.0
158,1,158,1979,-1,2.0,1.1,1.0,1.136137321381335,-0.8987354930330013,5.0,0.0
159,1,159,1987,-1,2.3,1.1,1.0,1.8144282595194468,-0.8987354930330013,5.0,0.0
160,1,160,1573,-1,0.35,1.1,2.0,-2.5944628383782815,-0.8987354930330013,0.0,0.0
161,1,161,1712,1,1.85,1.85,2.0,0.7969918523122793,0.7969918523122785,4.0,4.0
162,1,162,2040,-1,1.55,1.7,2.0,0.11870091417416709,0.4578463832432223,3.0,4.0
163,1,163,2372,1,2.0,1.85,2.0,1.136137321381335,0.7969918523122785,5.0,4.0
164,1,164,4185,-1,2.0,1.7,2.0,1.136137321381335,0.4578463832432223,5.0,4.0
165,1,165,3429,1,1.1,1.25,2.0,-0.8987354930330009,-0.5595900239639454,0.0,1.0
166,1,166,2044,-1,1.4,1.55,2.0,-0.22044455489488926,0.11870091417416655,2.0,3.0
167,1,167,2542,1,2.0,0.95,2.0,1.136137321381335,-1.2378809621020574,5.0,0.0
168,1,168,1576,1,2.0,1.25,2.0,1.136137321381335,-0.5595900239639454,5.0,1.0
169,1,169,2497,-1,1.1,1.1,2.0,-0.8987354930330009,-0.8987354930330013,0.0,0.0
170,1,170,2511,1,1.85,1.1,2.0,0.7969918523122793,-0.8987354930330013,4.0,0.0
171,1,171,1564,1,1.55,1.55,2.0,0.11870091417416709,0.11870091417416655,3.0,3.0
172,1,172,1616,1,1.55,0.95,2.0,0.11870091417416709,-1.2378809621020574,3.0,0.0
173,1,173,2987,1,2.0,1.7,2.0,1.136137321381335,0.4578463832432223,5.0,4.0
174,1,174,3625,-1,1.7,2.0,2.0,0.4578463832432229,1.1361373213813344,4.0,5.0
175,1,175,2226,-1,1.1,2.0,2.0,-0.8987354930330009,1.1361373213813344,0.0,5.0
176,1,176,2179,-1,0.8,1.55,2.0,-1.577026431171113,0.11870091417416655,0.0,3.0
177,1,177,1847,-1,0.65,1.85,2.0,-1.9161719002401691,0.7969918523122785,0.0,4.0
178,1,178,1569,1,1.25,0.65,2.0,-0.5595900239639451,-1.9161719002401694,1.0,0.0
179,1,179,2371,-1,1.1,2.0,2.0,-0.8987354930330009,1.1361373213813344,0.0,5.0
180,1,180,2482,-1,1.1,1.85,2.0,-0.8987354930330009,0.7969918523122785,0.0,4.0
181,1,181,2747,-1,0.95,1.1,2.0,-1.2378809621020572,-0.8987354930330013,0.0,0.0
182,1,182,2918,1,2.0,1.55,2.0,1.136137321381335,0.11870091417416655,5.0,3.0
183,1,183,3706,1,2.0,1.85,2.0,1.136137321381335,0.7969918523122785,5.0,4.0
184,1,184,3625,1,2.0,1.1,2.0,1.136137321381335,-0.8987354930330013,5.0,0.0
185,1,185,3938,-1,0.8,0.95,2.0,-1.577026431171113,-1.2378809621020574,0.0,0.0
186,1,186,2329,-1,0.65,0.95,2.0,-1.9161719002401691,-1.2378809621020574,0.0,0.0
187,1,187,2028,-1,1.25,1.7,2.0,-0.5595900239639451,0.4578463832432223,1.0,4.0
188,1,188,1665,1,1.85,0.35,2.0,0.7969918523122793,-2.594462838378281,4.0,0.0
189,1,189,1580,1,2.3,0.95,2.0,1.8144282595194468,-1.2378809621020574,5.0,0.0
190,1,190,4189,-1,1.7,2.3,2.0,0.4578463832432229,1.8144282595194459,4.0,5.0
191,1,191,2626,-1,1.7,1.85,2.0,0.4578463832432229,0.7969918523122785,4.0,4.0
192,1,192,3783,1,1.7,1.25,2.0,0.4578463832432229,-0.5595900239639454,4.0,1.0
193,1,193,2920,-1,1.55,2.0,2.0,0.11870091417416709,1.1361373213813344,3.0,5.0
194,1,194,4843,-1,1.25,1.1,2.0,-0.5595900239639451,-0.8987354930330013,1.0,0.0
195,1,195,5275,-1,1.4,1.7,2.0,-0.22044455489488926,0.4578463832432223,2.0,4.0
196,1,196,5630,-1,1.1,1.4,2.0,-0.8987354930330009,-0.2204445548948897,0.0,2.0
197,1,197,1871,1,2.0,1.25,2.0,1.136137321381335,-0.5595900239639454,5.0,1.0
198,1,198,4173,1,1.85,1.25,2.0,0.7969918523122793,-0.5595900239639454,4.0,1.0
199,1,199,2828,-1,1.55,1.85,2.0,0.11870091417416709,0.7969918523122785,3.0,4.0
200,1,200,2166,-1,1.85,1.1,1.0,0.7969918523122793,-0.8987354930330013,4.0,0.0
201,1,201,2263,-1,2.0,1.55,1.0,1.136137321381335,0.11870091417416655,5.0,3.0
202,1,202,1491,1,0.8,1.55,1.0,-1.577026431171113,0.11870091417416655,0.0,3.0
203,1,203,1697,-1,1.1,1.25,1.0,-0.8987354930330009,-0.5595900239639454,0.0,1.0
204,1,204,2250,1,1.55,1.7,1.0,0.11870091417416709,0.4578463832432223,3.0,4.0
205,1,205,2017,-1,1.7,1.25,1.0,0.4578463832432229,-0.5595900239639454,4.0,1.0
206,1,206,2098,1,1.7,1.85,1.0,0.4578463832432229,0.7969918523122785,4.0,4.0
207,1,207,1744,-1,2.0,1.25,1.0,1.136137321381335,-0.5595900239639454,5.0,1.0
208,1,208,2002,-1,1.85,1.85,1.0,0.7969918523122793,0.7969918523122785,4.0,4.0
209,1,209,2099,-1,2.0,1.1,1.0,1.136137321381335,-0.8987354930330013,5.0,0.0
210,1,210,4340,-1,1.4,1.7,1.0,-0.22044455489488926,0.4578463832432223,2.0,4.0
211,1,211,2085,1,1.55,1.85,1.0,0.11870091417416709,0.7969918523122785,3.0,4.0
212,1,212,2755,1,1.55,2.0,1.0,0.11870091417416709,1.1361373213813344,3.0,5.0
213,1,213,2265,-1,2.0,1.85,1.0,1.136137321381335,0.7969918523122785,5.0,4.0
214,1,214,1866,1,1.25,1.7,1.0,-0.5595900239639451,0.4578463832432223,1.0,4.0
215,1,215,2166,-1,1.85,0.35,1.0,0.7969918523122793,-2.594462838378281,4.0,0.0
216,1,216,4828,1,1.25,1.1,1.0,-0.5595900239639451,-0.8987354930330013,1.0,0.0
217,1,217,2376,-1,2.0,0.95,1.0,1.136137321381335,-1.2378809621020574,5.0,0.0
218,1,218,2106,-1,2.0,1.85,1.0,1.136137321381335,0.7969918523122785,5.0,4.0
219,1,219,2328,-1,1.85,1.25,1.0,0.7969918523122793,-0.5595900239639454,4.0,1.0
220,1,220,4574,-1,2.0,1.7,1.0,1.136137321381335,0.4578463832432223,5.0,4.0
221,1,221,1708,1,1.1,1.4,1.0,-0.8987354930330009,-0.2204445548948897,0.0,2.0
222,1,222,1739,1,1.1,1.85,1.0,-0.8987354930330009,0.7969918523122785,0.0,4.0
223,1,223,1466,1,0.35,1.1,1.0,-2.5944628383782815,-0.8987354930330013,0.0,0.0
224,1,224,4432,-1,1.7,2.3,1.0,0.4578463832432229,1.8144282595194459,4.0,5.0
225,1,225,1759,1,1.1,2.0,1.0,-0.8987354930330009,1.1361373213813344,0.0,5.0
226,1,226,1533,1,1.1,2.0,1.0,-0.8987354930330009,1.1361373213813344,0.0,5.0
227,1,227,1556,-1,1.25,0.65,1.0,-0.5595900239639451,-1.9161719002401694,1.0,0.0
228,1,228,1545,-1,1.55,1.55,1.0,0.11870091417416709,0.11870091417416655,3.0,3.0
229,1,229,1291,1,1.7,2.0,1.0,0.4578463832432229,1.1361373213813344,4.0,5.0
230,1,230,1544,1,1.4,1.55,1.0,-0.22044455489488926,0.11870091417416655,2.0,3.0
231,1,231,4190,1,0.65,0.95,1.0,-1.9161719002401691,-1.2378809621020574,0.0,0.0
232,1,232,1712,1,0.65,1.85,1.0,-1.9161719002401691,0.7969918523122785,0.0,4.0
233,1,233,2958,1,1.55,0.95,1.0,0.11870091417416709,-1.2378809621020574,3.0,0.0
234,1,234,1618,-1,2.3,0.95,1.0,1.8144282595194468,-1.2378809621020574,5.0,0.0
235,1,235,1474,-1,2.0,1.7,1.0,1.136137321381335,0.4578463832432223,5.0,4.0
236,1,236,1715,-1,2.0,1.25,1.0,1.136137321381335,-0.5595900239639454,5.0,1.0
237,1,237,1819,1,1.1,1.1,1.0,-0.8987354930330009,-0.8987354930330013,0.0,0.0
238,1,238,1454,1,0.95,1.1,1.0,-1.2378809621020572,-0.8987354930330013,0.0,0.0
239,1,239,3480,-1,0.8,0.95,1.0,-1.577026431171113,-1.2378809621020574,0.0,0.0
240,2,0,4960,-1,0.2,0.5,2.0,-0.7095670447678752,0.6278639778292716,0.0,5.0
241,2,1,6438,-1,0.5,0.65,2.0,0.5660591031294269,1.27644656611776,5.0,5.0
242,2,2,5125,-1,0.2,0.65,2.0,-0.7095670447678752,1.27644656611776,0.0,5.0
243,2,3,4268,-1,0.2,0.5,2.0,-0.7095670447678752,0.6278639778292716,0.0,5.0
244,2,4,4726,1,0.5,0.35,2.0,0.5660591031294269,-0.020718610459216674,5.0,2.0
245,2,5,5392,1,0.5,0.35,2.0,0.5660591031294269,-0.020718610459216674,5.0,2.0
246,2,6,3471,1,0.2,0.0,2.0,-0.7095670447678752,-1.5340779831323557,0.0,0.0
247,2,7,4299,1,0.5,0.35,2.0,0.5660591031294269,-0.020718610459216674,5.0,2.0
248,2,8,4299,1,0.5,0.5,2.0,0.5660591031294269,0.6278639778292716,5.0,5.0
249,2,9,4088,-1,0.5,0.65,2.0,0.5660591031294269,1.27644656611776,5.0,5.0
250,2,10,3147,-1,0.0,0.2,2.0,-1.55998447669941,-0.6693011987477047,0.0,0.0
251,2,11,3923,-1,0.0,0.2,2.0,-1.55998447669941,-0.6693011987477047,0.0,0.0
252,2,12,3889,-1,0.35,0.65,2.0,-0.07175397081922431,1.27644656611776,2.0,5.0
253,2,13,4426,-1,0.0,0.2,2.0,-1.55998447669941,-0.6693011987477047,0.0,0.0
254,2,14,3035,1,0.65,0.0,2.0,1.203872177078078,-1.5340779831323557,5.0,0.0
255,2,15,4915,1,0.2,0.2,2.0,-0.7095670447678752,-0.6693011987477047,0.0,0.0
256,2,16,5395,1,0.5,0.35,2.0,0.5660591031294269,-0.020718610459216674,5.0,2.0
257,2,17,5623,1,0.35,0.65,2.0,-0.07175397081922431,1.27644656611776,2.0,5.0
258,2,18,6208,1,0.35,0.2,2.0,-0.07175397081922431,-0.6693011987477047,2.0,0.0
259,2,19,2323,1,0.2,0.0,2.0,-0.7095670447678752,-1.5340779831323557,0.0,0.0
260,2,20,3491,-1,0.35,0.2,2.0,-0.07175397081922431,-0.6693011987477047,2.0,0.0
261,2,21,5468,1,0.65,0.2,2.0,1.203872177078078,-0.6693011987477047,5.0,0.0
262,2,22,6446,-1,0.5,0.65,2.0,0.5660591031294269,1.27644656611776,5.0,5.0
263,2,23,4541,1,0.35,0.35,2.0,-0.07175397081922431,-0.020718610459216674,2.0,2.0
264,2,24,3991,-1,0.0,0.8,2.0,-1.55998447669941,1.925029154406248,0.0,5.0
265,2,25,4235,-1,0.5,0.65,2.0,0.5660591031294269,1.27644656611776,5.0,5.0
266,2,26,5489,1,0.65,0.65,2.0,1.203872177078078,1.27644656611776,5.0,5.0
267,2,27,6380,-1,0.5,0.8,2.0,0.5660591031294269,1.925029154406248,5.0,5.0
268,2,28,3385,1,0.5,0.05,2.0,0.5660591031294269,-1.317883787036193,5.0,0.0
269,2,29,4479,1,0.5,0.5,2.0,0.5660591031294269,0.6278639778292716,5.0,5.0
270,2,30,3546,-1,0.2,0.65,2.0,-0.7095670447678752,1.27644656611776,0.0,5.0
271,2,31,3266,1,0.8,0.2,2.0,1.8416852510267292,-0.6693011987477047,5.0,0.0
272,2,32,2267,1,0.2,0.05,2.0,-0.7095670447678752,-1.317883787036193,0.0,0.0
273,2,33,3808,-1,0.2,0.35,2.0,-0.7095670447678752,-0.020718610459216674,0.0,2.0
274,2,34,4033,-1,0.65,0.35,2.0,1.203872177078078,-0.020718610459216674,5.0,2.0
275,2,35,3093,-1,0.2,0.5,2.0,-0.7095670447678752,0.6278639778292716,0.0,5.0
276,2,36,3486,1,0.05,0.35,2.0,-1.3473801187165264,-0.020718610459216674,0.0,2.0
277,2,37,5401,-1,0.05,0.5,2.0,-1.3473801187165264,0.6278639778292716,0.0,5.0
278,2,38,2833,-1,0.5,0.05,2.0,0.5660591031294269,-1.317883787036193,5.0,0.0
279,2,39,1746,-1,0.0,0.5,2.0,-1.55998447669941,0.6278639778292716,0.0,5.0
280,2,40,3113,1,0.5,0.8,1.0,0.5660591031294269,1.925029154406248,5.0,5.0
281,2,41,4273,1,0.05,0.5,1.0,-1.3473801187165264,0.6278639778292716,0.0,5.0
282,2,42,2400,-1,0.5,0.2,1.0,0.5660591031294269,-0.6693011987477047,5.0,0.0
283,2,43,2710,1,0.35,0.5,1.0,-0.07175397081922431,0.6278639778292716,2.0,5.0
284,2,44,3446,-1,0.5,0.2,1.0,0.5660591031294269,-0.6693011987477047,5.0,0.0
285,2,45,3993,-1,0.65,0.5,1.0,1.203872177078078,0.6278639778292716,5.0,5.0
286,2,46,2389,-1,0.65,0.05,1.0,1.203872177078078,-1.317883787036193,5.0,0.0
287,2,47,1404,-1,0.2,0.0,1.0,-0.7095670447678752,-1.5340779831323557,0.0,0.0
288,2,48,3249,1,0.05,0.2,1.0,-1.3473801187165264,-0.6693011987477047,0.0,0.0
289,2,49,1822,-1,0.35,0.0,1.0,-0.07175397081922431,-1.5340779831323557,2.0,0.0
290,2,50,1994,-1,0.2,0.0,1.0,-0.7095670447678752,-1.5340779831323557,0.0,0.0
291,2,51,2700,-1,0.65,0.2,1.0,1.203872177078078,-0.6693011987477047,5.0,0.0
292,2,52,1886,-1,0.5,0.0,1.0,0.5660591031294269,-1.5340779831323557,5.0,0.0
293,2,53,3326,1,0.65,0.65,1.0,1.203872177078078,1.27644656611776,5.0,5.0
294,2,54,3299,1,0.2,0.8,1.0,-0.7095670447678752,1.925029154406248,0.0,5.0
295,2,55,2521,1,0.0,0.65,1.0,-1.55998447669941,1.27644656611776,0.0,5.0
296,2,56,2952,-1,0.05,0.5,1.0,-1.3473801187165264,0.6278639778292716,0.0,5.0
297,2,57,2415,-1,0.35,0.2,1.0,-0.07175397081922431,-0.6693011987477047,2.0,0.0
298,2,58,3498,1,0.2,0.2,1.0,-0.7095670447678752,-0.6693011987477047,0.0,0.0
299,2,59,2270,1,0.0,0.2,1.0,-1.55998447669941,-0.6693011987477047,0.0,0.0
300,2,60,2513,1,0.35,0.5,1.0,-0.07175397081922431,0.6278639778292716,2.0,5.0
301,2,61,2738,1,0.65,0.35,1.0,1.203872177078078,-0.020718610459216674,5.0,2.0
302,2,62,3314,-1,0.35,0.5,1.0,-0.07175397081922431,0.6278639778292716,2.0,5.0
303,2,63,3086,1,0.05,0.2,1.0,-1.3473801187165264,-0.6693011987477047,0.0,0.0
304,2,64,2393,1,0.5,0.5,1.0,0.5660591031294269,0.6278639778292716,5.0,5.0
305,2,65,2560,1,0.05,0.2,1.0,-1.3473801187165264,-0.6693011987477047,0.0,0.0
306,2,66,3130,-1,0.65,0.35,1.0,1.203872177078078,-0.020718610459216674,5.0,2.0
307,2,67,4404,-1,0.65,0.5,1.0,1.203872177078078,0.6278639778292716,5.0,5.0
308,2,68,1777,-1,0.65,0.2,1.0,1.203872177078078,-0.6693011987477047,5.0,0.0
309,2,69,2386,-1,0.5,0.35,1.0,0.5660591031294269,-0.020718610459216674,5.0,2.0
310,2,70,2762,-1,0.5,0.35,1.0,0.5660591031294269,-0.020718610459216674,5.0,2.0
311,2,71,1868,-1,0.65,0.2,1.0,1.203872177078078,-0.6693011987477047,5.0,0.0
312,2,72,2631,-1,0.65,0.65,1.0,1.203872177078078,1.27644656611776,5.0,5.0
313,2,73,3073,-1,0.65,0.5,1.0,1.203872177078078,0.6278639778292716,5.0,5.0
314,2,74,2059,1,0.0,0.35,1.0,-1.55998447669941,-0.020718610459216674,0.0,2.0
315,2,75,1611,1,0.2,0.65,1.0,-0.7095670447678752,1.27644656611776,0.0,5.0
316,2,76,1721,-1,0.5,0.0,1.0,0.5660591031294269,-1.5340779831323557,5.0,0.0
317,2,77,2535,1,0.2,0.0,1.0,-0.7095670447678752,-1.5340779831323557,0.0,0.0
318,2,78,2177,1,0.65,0.5,1.0,1.203872177078078,0.6278639778292716,5.0,5.0
319,2,79,2577,1,0.0,0.65,1.0,-1.55998447669941,1.27644656611776,0.0,5.0
320,2,80,2741,1,0.5,0.2,2.0,0.5660591031294269,-0.6693011987477047,5.0,0.0
321,2,81,2186,-1,0.0,0.65,2.0,-1.55998447669941,1.27644656611776,0.0,5.0
322,2,82,2803,-1,0.05,0.2,2.0,-1.3473801187165264,-0.6693011987477047,0.0,0.0
323,2,83,1702,-1,0.0,0.35,2.0,-1.55998447669941,-0.020718610459216674,0.0,2.0
324,2,84,2152,-1,0.2,0.2,2.0,-0.7095670447678752,-0.6693011987477047,0.0,0.0
325,2,85,1414,1,0.2,0.65,2.0,-0.7095670447678752,1.27644656611776,0.0,5.0
326,2,86,1979,1,0.5,0.35,2.0,0.5660591031294269,-0.020718610459216674,5.0,2.0
327,2,87,1929,1,0.5,0.35,2.0,0.5660591031294269,-0.020718610459216674,5.0,2.0
328,2,88,1618,-1,0.0,0.65,2.0,-1.55998447669941,1.27644656611776,0.0,5.0
329,2,89,1534,-1,0.2,0.0,2.0,-0.7095670447678752,-1.5340779831323557,0.0,0.0
330,2,90,1384,-1,0.35,0.5,2.0,-0.07175397081922431,0.6278639778292716,2.0,5.0
331,2,91,1343,1,0.2,0.0,2.0,-0.7095670447678752,-1.5340779831323557,0.0,0.0
332,2,92,1683,1,0.2,0.0,2.0,-0.7095670447678752,-1.5340779831323557,0.0,0.0
333,2,93,2062,1,0.65,0.05,2.0,1.203872177078078,-1.317883787036193,5.0,0.0
334,2,94,1539,1,0.65,0.5,2.0,1.203872177078078,0.6278639778292716,5.0,5.0
335,2,95,1601,1,0.65,0.65,2.0,1.203872177078078,1.27644656611776,5.0,5.0
336,2,96,1858,-1,0.05,0.2,2.0,-1.3473801187165264,-0.6693011987477047,0.0,0.0
337,2,97,1467,1,0.5,0.5,2.0,0.5660591031294269,0.6278639778292716,5.0,5.0
338,2,98,1867,-1,0.65,0.65,2.0,1.203872177078078,1.27644656611776,5.0,5.0
339,2,99,1450,-1,0.2,0.8,2.0,-0.7095670447678752,1.925029154406248,0.0,5.0
340,2,100,2378,-1,0.65,0.5,2.0,1.203872177078078,0.6278639778292716,5.0,5.0
341,2,101,2138,1,0.35,0.5,2.0,-0.07175397081922431,0.6278639778292716,2.0,5.0
342,2,102,1414,-1,0.0,0.2,2.0,-1.55998447669941,-0.6693011987477047,0.0,0.0
343,2,103,1971,-1,0.65,0.35,2.0,1.203872177078078,-0.020718610459216674,5.0,2.0
344,2,104,1983,1,0.65,0.2,2.0,1.203872177078078,-0.6693011987477047,5.0,0.0
345,2,105,2258,1,0.65,0.2,2.0,1.203872177078078,-0.6693011987477047,5.0,0.0
346,2,106,1400,1,0.5,0.2,2.0,0.5660591031294269,-0.6693011987477047,5.0,0.0
347,2,107,1192,1,0.5,0.0,2.0,0.5660591031294269,-1.5340779831323557,5.0,0.0
348,2,108,1291,1,0.65,0.2,2.0,1.203872177078078,-0.6693011987477047,5.0,0.0
349,2,109,1035,1,0.35,0.2,2.0,-0.07175397081922431,-0.6693011987477047,2.0,0.0
350,2,110,2068,1,0.05,0.5,2.0,-1.3473801187165264,0.6278639778292716,0.0,5.0
351,2,111,1164,1,0.5,0.0,2.0,0.5660591031294269,-1.5340779831323557,5.0,0.0
352,2,112,1482,-1,0.65,0.5,2.0,1.203872177078078,0.6278639778292716,5.0,5.0
353,2,113,1122,1,0.35,0.0,2.0,-0.07175397081922431,-1.5340779831323557,2.0,0.0
354,2,114,1763,1,0.05,0.2,2.0,-1.3473801187165264,-0.6693011987477047,0.0,0.0
355,2,115,2008,1,0.65,0.35,2.0,1.203872177078078,-0.020718610459216674,5.0,2.0
356,2,116,1831,1,0.05,0.5,2.0,-1.3473801187165264,0.6278639778292716,0.0,5.0
357,2,117,2109,-1,0.35,0.5,2.0,-0.07175397081922431,0.6278639778292716,2.0,5.0
358,2,118,1709,1,0.65,0.5,2.0,1.203872177078078,0.6278639778292716,5.0,5.0
359,2,119,1236,-1,0.5,0.8,2.0,0.5660591031294269,1.925029154406248,5.0,5.0
360,2,120,2362,1,0.2,0.65,1.0,-0.7095670447678752,1.27644656611776,0.0,5.0
361,2,121,1504,1,0.0,0.2,1.0,-1.55998447669941,-0.6693011987477047,0.0,0.0
362,2,122,1769,-1,0.5,0.05,1.0,0.5660591031294269,-1.317883787036193,5.0,0.0
363,2,123,1998,1,0.35,0.05,1.0,-0.07175397081922431,-1.317883787036193,2.0,0.0
364,2,124,1194,1,0.35,0.5,1.0,-0.07175397081922431,0.6278639778292716,2.0,5.0
365,2,125,1135,1,0.05,0.65,1.0,-1.3473801187165264,1.27644656611776,0.0,5.0
366,2,126,1716,-1,0.65,0.5,1.0,1.203872177078078,0.6278639778292716,5.0,5.0
367,2,127,1320,-1,0.5,0.65,1.0,0.5660591031294269,1.27644656611776,5.0,5.0
368,2,128,1241,1,0.2,0.5,1.0,-0.7095670447678752,0.6278639778292716,0.0,5.0
369,2,129,1278,1,0.8,0.5,1.0,1.8416852510267292,0.6278639778292716,5.0,5.0
370,2,130,1160,-1,0.35,0.2,1.0,-0.07175397081922431,-0.6693011987477047,2.0,0.0
371,2,131,1596,-1,0.2,0.35,1.0,-0.7095670447678752,-0.020718610459216674,0.0,2.0
372,2,132,1158,-1,0.65,0.2,1.0,1.203872177078078,-0.6693011987477047,5.0,0.0
373,2,133,1504,1,0.5,0.5,1.0,0.5660591031294269,0.6278639778292716,5.0,5.0
374,2,134,1069,1,0.0,0.5,1.0,-1.55998447669941,0.6278639778292716,0.0,5.0
375,2,135,1009,1,0.2,0.65,1.0,-0.7095670447678752,1.27644656611776,0.0,5.0
376,2,136,1124,1,0.65,0.65,1.0,1.203872177078078,1.27644656611776,5.0,5.0
377,2,137,1174,-1,0.5,0.2,1.0,0.5660591031294269,-0.6693011987477047,5.0,0.0
378,2,138,1020,-1,0.65,0.0,1.0,1.203872177078078,-1.5340779831323557,5.0,0.0
379,2,139,1150,1,0.0,0.35,1.0,-1.55998447669941,-0.020718610459216674,0.0,2.0
380,2,140,1254,-1,0.65,0.5,1.0,1.203872177078078,0.6278639778292716,5.0,5.0
381,2,141,1898,-1,0.5,0.0,1.0,0.5660591031294269,-1.5340779831323557,5.0,0.0
382,2,142,1184,1,0.2,0.35,1.0,-0.7095670447678752,-0.020718610459216674,0.0,2.0
383,2,143,1012,-1,0.8,0.0,1.0,1.8416852510267292,-1.5340779831323557,5.0,0.0
384,2,144,2056,-1,0.35,0.65,1.0,-0.07175397081922431,1.27644656611776,2.0,5.0
385,2,145,1025,-1,0.2,0.0,1.0,-0.7095670447678752,-1.5340779831323557,0.0,0.0
386,2,146,1123,1,0.35,0.5,1.0,-0.07175397081922431,0.6278639778292716,2.0,5.0
387,2,147,1224,1,0.0,0.2,1.0,-1.55998447669941,-0.6693011987477047,0.0,0.0
388,2,148,1927,-1,0.5,0.2,1.0,0.5660591031294269,-0.6693011987477047,5.0,0.0
389,2,149,1103,-1,0.8,0.5,1.0,1.8416852510267292,0.6278639778292716,5.0,5.0
390,2,150,1177,1,0.0,0.5,1.0,-1.55998447669941,0.6278639778292716,0.0,5.0
391,2,151,1173,1,0.5,0.65,1.0,0.5660591031294269,1.27644656611776,5.0,5.0
392,2,152,1127,1,0.35,0.35,1.0,-0.07175397081922431,-0.020718610459216674,2.0,2.0
393,2,153,1540,1,0.2,0.05,1.0,-0.7095670447678752,-1.317883787036193,0.0,0.0
394,2,154,1574,1,0.35,0.5,1.0,-0.07175397081922431,0.6278639778292716,2.0,5.0
395,2,155,1212,-1,0.2,0.05,1.0,-0.7095670447678752,-1.317883787036193,0.0,0.0
396,2,156,1247,1,0.2,0.35,1.0,-0.7095670447678752,-0.020718610459216674,0.0,2.0
397,2,157,1096,1,0.2,0.65,1.0,-0.7095670447678752,1.27644656611776,0.0,5.0
398,2,158,1163,-1,0.65,0.2,1.0,1.203872177078078,-0.6693011987477047,5.0,0.0
399,2,159,1068,-1,0.35,0.0,1.0,-0.07175397081922431,-1.5340779831323557,2.0,0.0
400,2,160,1524,1,0.2,0.0,2.0,-0.7095670447678752,-1.5340779831323557,0.0,0.0
401,2,161,1581,1,0.65,0.5,2.0,1.203872177078078,0.6278639778292716,5.0,5.0
402,2,162,1901,1,0.2,0.05,2.0,-0.7095670447678752,-1.317883787036193,0.0,0.0
403,2,163,1353,-1,0.35,0.5,2.0,-0.07175397081922431,0.6278639778292716,2.0,5.0
404,2,164,1977,1,0.35,0.0,2.0,-0.07175397081922431,-1.5340779831323557,2.0,0.0
405,2,165,2311,-1,0.65,0.65,2.0,1.203872177078078,1.27644656611776,5.0,5.0
406,2,166,4034,1,0.35,0.2,2.0,-0.07175397081922431,-0.6693011987477047,2.0,0.0
407,2,167,4496,-1,0.05,0.65,2.0,-1.3473801187165264,1.27644656611776,0.0,5.0
408,2,168,3360,1,0.65,0.2,2.0,1.203872177078078,-0.6693011987477047,5.0,0.0
409,2,169,2518,1,0.2,0.05,2.0,-0.7095670447678752,-1.317883787036193,0.0,0.0
410,2,170,2633,-1,0.5,0.0,2.0,0.5660591031294269,-1.5340779831323557,5.0,0.0
411,2,171,1823,-1,0.0,0.2,2.0,-1.55998447669941,-0.6693011987477047,0.0,0.0
412,2,172,1877,-1,0.35,0.5,2.0,-0.07175397081922431,0.6278639778292716,2.0,5.0
413,2,173,1594,-1,0.0,0.2,2.0,-1.55998447669941,-0.6693011987477047,0.0,0.0
414,2,174,1612,-1,0.35,0.5,2.0,-0.07175397081922431,0.6278639778292716,2.0,5.0
415,2,175,1802,-1,0.0,0.5,2.0,-1.55998447669941,0.6278639778292716,0.0,5.0
416,2,176,1411,-1,0.2,0.65,2.0,-0.7095670447678752,1.27644656611776,0.0,5.0
417,2,177,1388,-1,0.0,0.5,2.0,-1.55998447669941,0.6278639778292716,0.0,5.0
418,2,178,1358,1,0.2,0.35,2.0,-0.7095670447678752,-0.020718610459216674,0.0,2.0
419,2,179,1781,-1,0.5,0.05,2.0,0.5660591031294269,-1.317883787036193,5.0,0.0
420,2,180,1297,-1,0.8,0.5,2.0,1.8416852510267292,0.6278639778292716,5.0,5.0
421,2,181,1113,-1,0.2,0.65,2.0,-0.7095670447678752,1.27644656611776,0.0,5.0
422,2,182,2545,-1,0.5,0.2,2.0,0.5660591031294269,-0.6693011987477047,5.0,0.0
423,2,183,1569,-1,0.35,0.05,2.0,-0.07175397081922431,-1.317883787036193,2.0,0.0
424,2,184,2018,-1,0.5,0.65,2.0,0.5660591031294269,1.27644656611776,5.0,5.0
425,2,185,1145,1,0.5,0.2,2.0,0.5660591031294269,-0.6693011987477047,5.0,0.0
426,2,186,1527,-1,0.2,0.35,2.0,-0.7095670447678752,-0.020718610459216674,0.0,2.0
427,2,187,1212,1,0.65,0.5,2.0,1.203872177078078,0.6278639778292716,5.0,5.0
428,2,188,1160,1,0.5,0.65,2.0,0.5660591031294269,1.27644656611776,5.0,5.0
429,2,189,1098,1,0.8,0.5,2.0,1.8416852510267292,0.6278639778292716,5.0,5.0
430,2,190,1057,-1,0.2,0.65,2.0,-0.7095670447678752,1.27644656611776,0.0,5.0
431,2,191,838,1,0.8,0.0,2.0,1.8416852510267292,-1.5340779831323557,5.0,0.0
432,2,192,1373,-1,0.5,0.5,2.0,0.5660591031294269,0.6278639778292716,5.0,5.0
433,2,193,1476,-1,0.0,0.35,2.0,-1.55998447669941,-0.020718610459216674,0.0,2.0
434,2,194,1187,-1,0.2,0.5,2.0,-0.7095670447678752,0.6278639778292716,0.0,5.0
435,2,195,1047,1,0.35,0.65,2.0,-0.07175397081922431,1.27644656611776,2.0,5.0
436,2,196,1063,1,0.65,0.2,2.0,1.203872177078078,-0.6693011987477047,5.0,0.0
437,2,197,861,-1,0.35,0.35,2.0,-0.07175397081922431,-0.020718610459216674,2.0,2.0
438,2,198,1220,-1,0.2,0.35,2.0,-0.7095670447678752,-0.020718610459216674,0.0,2.0
439,2,199,757,1,0.65,0.0,2.0,1.203872177078078,-1.5340779831323557,5.0,0.0
440,2,200,1829,1,0.5,0.8,1.0,0.5660591031294269,1.925029154406248,5.0,5.0
441,2,201,1958,1,0.05,0.5,1.0,-1.3473801187165264,0.6278639778292716,0.0,5.0
442,2,202,1335,-1,0.5,0.2,1.0,0.5660591031294269,-0.6693011987477047,5.0,0.0
443,2,203,1560,-1,0.35,0.5,1.0,-0.07175397081922431,0.6278639778292716,2.0,5.0
444,2,204,1322,-1,0.5,0.2,1.0,0.5660591031294269,-0.6693011987477047,5.0,0.0
445,2,205,1545,-1,0.65,0.5,1.0,1.203872177078078,0.6278639778292716,5.0,5.0
446,2,206,1385,-1,0.65,0.05,1.0,1.203872177078078,-1.317883787036193,5.0,0.0
447,2,207,2884,-1,0.2,0.0,1.0,-0.7095670447678752,-1.5340779831323557,0.0,0.0
448,2,208,1358,1,0.05,0.2,1.0,-1.3473801187165264,-0.6693011987477047,0.0,0.0
449,2,209,1663,-1,0.35,0.0,1.0,-0.07175397081922431,-1.5340779831323557,2.0,0.0
450,2,210,1382,-1,0.2,0.0,1.0,-0.7095670447678752,-1.5340779831323557,0.0,0.0
451,2,211,3400,-1,0.65,0.2,1.0,1.203872177078078,-0.6693011987477047,5.0,0.0
452,2,212,1058,-1,0.5,0.0,1.0,0.5660591031294269,-1.5340779831323557,5.0,0.0
453,2,213,882,1,0.65,0.65,1.0,1.203872177078078,1.27644656611776,5.0,5.0
454,2,214,1057,1,0.2,0.8,1.0,-0.7095670447678752,1.925029154406248,0.0,5.0
455,2,215,1229,1,0.0,0.65,1.0,-1.55998447669941,1.27644656611776,0.0,5.0
456,2,216,1375,-1,0.05,0.5,1.0,-1.3473801187165264,0.6278639778292716,0.0,5.0
457,2,217,819,-1,0.35,0.2,1.0,-0.07175397081922431,-0.6693011987477047,2.0,0.0
458,2,218,1925,1,0.2,0.2,1.0,-0.7095670447678752,-0.6693011987477047,0.0,0.0
459,2,219,1062,1,0.0,0.2,1.0,-1.55998447669941,-0.6693011987477047,0.0,0.0
460,2,220,1320,1,0.35,0.5,1.0,-0.07175397081922431,0.6278639778292716,2.0,5.0
461,2,221,1068,1,0.65,0.35,1.0,1.203872177078078,-0.020718610459216674,5.0,2.0
462,2,222,1506,-1,0.35,0.5,1.0,-0.07175397081922431,0.6278639778292716,2.0,5.0
463,2,223,883,1,0.05,0.2,1.0,-1.3473801187165264,-0.6693011987477047,0.0,0.0
464,2,224,959,1,0.5,0.5,1.0,0.5660591031294269,0.6278639778292716,5.0,5.0
465,2,225,1317,1,0.05,0.2,1.0,-1.3473801187165264,-0.6693011987477047,0.0,0.0
466,2,226,1176,-1,0.65,0.35,1.0,1.203872177078078,-0.020718610459216674,5.0,2.0
467,2,227,1196,-1,0.65,0.5,1.0,1.203872177078078,0.6278639778292716,5.0,5.0
468,2,228,1045,-1,0.65,0.2,1.0,1.203872177078078,-0.6693011987477047,5.0,0.0
469,2,229,1060,-1,0.5,0.35,1.0,0.5660591031294269,-0.020718610459216674,5.0,2.0
470,2,230,1112,-1,0.5,0.35,1.0,0.5660591031294269,-0.020718610459216674,5.0,2.0
471,2,231,1471,-1,0.65,0.2,1.0,1.203872177078078,-0.6693011987477047,5.0,0.0
472,2,232,1188,-1,0.65,0.65,1.0,1.203872177078078,1.27644656611776,5.0,5.0
473,2,233,1411,-1,0.65,0.5,1.0,1.203872177078078,0.6278639778292716,5.0,5.0
474,2,234,1345,1,0.0,0.35,1.0,-1.55998447669941,-0.020718610459216674,0.0,2.0
475,2,235,992,1,0.2,0.65,1.0,-0.7095670447678752,1.27644656611776,0.0,5.0
476,2,236,816,-1,0.5,0.0,1.0,0.5660591031294269,-1.5340779831323557,5.0,0.0
477,2,237,1740,1,0.2,0.0,1.0,-0.7095670447678752,-1.5340779831323557,0.0,0.0
478,2,238,1032,1,0.65,0.5,1.0,1.203872177078078,0.6278639778292716,5.0,5.0
479,2,239,1124,1,0.0,0.65,1.0,-1.55998447669941,1.27644656611776,0.0,5.0
480,3,0,4203,-1,1.1,2.3,2.0,-0.029681156073202257,1.1575650868549048,2.0,4.0
481,3,1,4734,1,2.75,2.15,2.0,1.6027824279529446,1.0091593064888915,4.0,3.0
482,3,2,4187,-1,0.5,2.6,2.0,-0.6233042775372557,1.4543766475869317,2.0,4.0
483,3,3,2945,-1,0.0,0.0,2.0,-1.1179902120906335,-1.1179902120906335,1.0,1.0
484,3,4,3554,1,2.3,0.95,2.0,1.1575650868549043,-0.17808693643921555,4.0,2.0
485,3,5,5791,1,1.1,0.2,2.0,-0.029681156073202257,-0.9201158382692824,2.0,2.0
486,3,6,630,-1,1.1,1.25,2.0,-0.029681156073202257,0.11872462429281125,2.0,3.0
487,3,7,3815,-1,0.95,1.95,2.0,-0.17808693643921575,0.8112849326675403,2.0,3.0
488,3,8,5328,1,0.65,0.0,2.0,-0.4748984971712424,-1.1179902120906335,2.0,1.0
489,3,9,6404,-1,2.75,2.15,2.0,1.6027824279529446,1.0091593064888915,4.0,3.0
490,3,10,2052,-1,0.0,2.75,2.0,-1.1179902120906335,1.602782427952945,1.0,4.0
491,3,11,5112,1,1.7,1.25,2.0,0.5639419653908511,0.11872462429281125,3.0,3.0
492,3,12,2769,-1,2.0,3.0,2.0,0.8607535261228777,1.8501253952296342,3.0,4.0
493,3,13,3526,-1,2.6,2.0,2.0,1.4543766475869313,0.8607535261228781,4.0,3.0
494,3,14,6337,1,1.25,0.35,2.0,0.118724624292811,-0.7717100579032691,3.0,2.0
495,3,15,2655,-1,0.5,2.9,2.0,-0.6233042775372557,1.7511882083189583,2.0,4.0
496,3,16,2385,1,0.95,0.5,2.0,-0.17808693643921575,-0.6233042775372557,2.0,2.0
497,3,17,1899,1,0.35,0.5,2.0,-0.7717100579032691,-0.6233042775372557,2.0,2.0
498,3,18,2165,1,1.1,0.0,2.0,-0.029681156073202257,-1.1179902120906335,2.0,1.0
499,3,19,2011,1,0.95,0.0,2.0,-0.17808693643921575,-1.1179902120906335,2.0,1.0
500,3,20,4543,1,0.0,0.0,2.0,-1.1179902120906335,-1.1179902120906335,1.0,1.0
501,3,21,3104,-1,0.35,3.0,2.0,-0.7717100579032691,1.8501253952296342,2.0,4.0
502,3,22,3357,1,0.35,0.05,2.0,-0.7717100579032691,-1.0685216186352957,2.0,1.0
503,3,23,2669,-1,0.0,1.4,2.0,-1.1179902120906335,0.26713040465882454,1.0,3.0
504,3,24,3132,1,0.65,0.0,2.0,-0.4748984971712424,-1.1179902120906335,2.0,1.0
505,3,25,8554,1,0.95,0.65,2.0,-0.17808693643921575,-0.4748984971712423,2.0,2.0
506,3,26,4247,-1,3.0,2.3,2.0,1.8501253952296335,1.1575650868549048,4.0,4.0
507,3,27,4917,-1,0.2,1.25,2.0,-0.9201158382692824,0.11872462429281125,2.0,3.0
508,3,28,5040,1,0.35,1.1,2.0,-0.7717100579032691,-0.029681156073202045,2.0,2.0
509,3,29,2385,1,2.3,0.0,2.0,1.1575650868549043,-1.1179902120906335,4.0,1.0
510,3,30,2413,-1,0.2,1.95,2.0,-0.9201158382692824,0.8112849326675403,2.0,3.0
511,3,31,2459,-1,0.95,2.3,2.0,-0.17808693643921575,1.1575650868549048,2.0,4.0
512,3,32,4277,-1,1.25,0.35,2.0,0.118724624292811,-0.7717100579032691,3.0,2.0
513,3,33,3671,1,0.05,0.2,2.0,-1.0685216186352957,-0.9201158382692824,1.0,2.0
514,3,34,1866,1,3.0,0.0,2.0,1.8501253952296335,-1.1179902120906335,4.0,1.0
515,3,35,2340,-1,0.5,0.65,2.0,-0.6233042775372557,-0.4748984971712423,2.0,2.0
516,3,36,4751,-1,0.0,2.75,2.0,-1.1179902120906335,1.602782427952945,1.0,4.0
517,3,37,5185,1,0.0,0.0,2.0,-1.1179902120906335,-1.1179902120906335,1.0,1.0
518,3,38,2073,1,2.0,0.05,2.0,0.8607535261228777,-1.0685216186352957,3.0,1.0
519,3,39,2031,-1,0.0,2.0,2.0,-1.1179902120906335,0.8607535261228781,1.0,3.0
520,3,40,4138,-1,0.95,0.0,1.0,-0.17808693643921575,-1.1179902120906335,2.0,1.0
521,3,41,1615,-1,1.1,0.0,1.0,-0.029681156073202257,-1.1179902120906335,2.0,1.0
522,3,42,1521,-1,0.95,0.5,1.0,-0.17808693643921575,-0.6233042775372557,2.0,2.0
523,3,43,1833,-1,2.3,0.0,1.0,1.1575650868549043,-1.1179902120906335,4.0,1.0
524,3,44,1921,1,0.5,2.6,1.0,-0.6233042775372557,1.4543766475869317,2.0,4.0
525,3,45,1472,-1,2.0,0.05,1.0,0.8607535261228777,-1.0685216186352957,3.0,1.0
526,3,46,3630,-1,1.1,0.2,1.0,-0.029681156073202257,-0.9201158382692824,2.0,2.0
527,3,47,2730,-1,1.25,0.35,1.0,0.118724624292811,-0.7717100579032691,3.0,2.0
528,3,48,5770,-1,2.75,2.15,1.0,1.6027824279529446,1.0091593064888915,4.0,3.0
529,3,49,2833,-1,0.05,0.2,1.0,-1.0685216186352957,-0.9201158382692824,1.0,2.0
530,3,50,1616,-1,0.65,0.0,1.0,-0.4748984971712424,-1.1179902120906335,2.0,1.0
531,3,51,1776,1,0.0,1.4,1.0,-1.1179902120906335,0.26713040465882454,1.0,3.0
532,3,52,1554,1,0.2,1.95,1.0,-0.9201158382692824,0.8112849326675403,2.0,3.0
533,3,53,2881,-1,0.0,0.0,1.0,-1.1179902120906335,-1.1179902120906335,1.0,1.0
534,3,54,2592,-1,0.65,0.0,1.0,-0.4748984971712424,-1.1179902120906335,2.0,1.0
535,3,55,1966,1,0.95,2.3,1.0,-0.17808693643921575,1.1575650868549048,2.0,4.0
536,3,56,4961,1,1.25,0.35,1.0,0.118724624292811,-0.7717100579032691,3.0,2.0
537,3,57,4289,1,0.0,0.0,1.0,-1.1179902120906335,-1.1179902120906335,1.0,1.0
538,3,58,2382,1,2.0,3.0,1.0,0.8607535261228777,1.8501253952296342,3.0,4.0
539,3,59,1627,-1,3.0,0.0,1.0,1.8501253952296335,-1.1179902120906335,4.0,1.0
540,3,60,1506,1,0.0,2.0,1.0,-1.1179902120906335,0.8607535261228781,1.0,3.0
541,3,61,3071,1,0.0,2.75,1.0,-1.1179902120906335,1.602782427952945,1.0,4.0
542,3,62,1683,1,0.5,2.9,1.0,-0.6233042775372557,1.7511882083189583,2.0,4.0
543,3,63,1869,-1,2.3,0.95,1.0,1.1575650868549043,-0.17808693643921555,4.0,2.0
544,3,64,1236,-1,0.35,0.05,1.0,-0.7717100579032691,-1.0685216186352957,2.0,1.0
545,3,65,5758,1,3.0,2.3,1.0,1.8501253952296335,1.1575650868549048,4.0,4.0
546,3,66,3641,-1,1.1,1.25,1.0,-0.029681156073202257,0.11872462429281125,2.0,3.0
547,3,67,1984,-1,0.0,0.0,1.0,-1.1179902120906335,-1.1179902120906335,1.0,1.0
548,3,68,2387,1,0.35,3.0,1.0,-0.7717100579032691,1.8501253952296342,2.0,4.0
549,3,69,1672,1,0.95,1.95,1.0,-0.17808693643921575,0.8112849326675403,2.0,3.0
550,3,70,3178,-1,0.35,1.1,1.0,-0.7717100579032691,-0.029681156073202045,2.0,2.0
551,3,71,4034,-1,1.7,1.25,1.0,0.5639419653908511,0.11872462429281125,3.0,3.0
552,3,72,2266,1,0.2,1.25,1.0,-0.9201158382692824,0.11872462429281125,2.0,3.0
553,3,73,9110,1,2.75,2.15,1.0,1.6027824279529446,1.0091593064888915,4.0,3.0
554,3,74,1914,-1,0.95,0.65,1.0,-0.17808693643921575,-0.4748984971712423,2.0,2.0
555,3,75,2310,1,2.6,2.0,1.0,1.4543766475869313,0.8607535261228781,4.0,3.0
556,3,76,3482,-1,0.35,0.5,1.0,-0.7717100579032691,-0.6233042775372557,2.0,2.0
557,3,77,2185,1,0.0,2.75,1.0,-1.1179902120906335,1.602782427952945,1.0,4.0
558,3,78,1643,1,0.5,0.65,1.0,-0.6233042775372557,-0.4748984971712423,2.0,2.0
559,3,79,6848,1,1.1,2.3,1.0,-0.029681156073202257,1.1575650868549048,2.0,4.0
560,3,80,1964,-1,1.25,2.15,2.0,0.118724624292811,1.0091593064888915,3.0,3.0
561,3,81,2323,1,2.0,0.0,2.0,0.8607535261228777,-1.1179902120906335,3.0,1.0
562,3,82,2812,1,1.25,0.2,2.0,0.118724624292811,-0.9201158382692824,3.0,2.0
563,3,83,2225,-1,0.0,0.0,2.0,-1.1179902120906335,-1.1179902120906335,1.0,1.0
564,3,84,1786,1,1.95,0.2,2.0,0.81128493266754,-0.9201158382692824,3.0,2.0
565,3,85,1676,-1,0.2,0.05,2.0,-0.9201158382692824,-1.0685216186352957,2.0,1.0
566,3,86,2207,-1,0.0,0.35,2.0,-1.1179902120906335,-0.7717100579032691,1.0,2.0
567,3,87,1493,-1,0.0,0.5,2.0,-1.1179902120906335,-0.6233042775372557,1.0,2.0
568,3,88,5068,1,2.15,0.5,2.0,1.009159306488891,-0.6233042775372557,3.0,2.0
569,3,89,3112,1,2.15,2.75,2.0,1.009159306488891,1.602782427952945,3.0,4.0
570,3,90,4139,1,0.5,1.7,2.0,-0.6233042775372557,0.5639419653908514,2.0,3.0
571,3,91,2312,1,2.9,0.5,2.0,1.7511882083189578,-0.6233042775372557,4.0,2.0
572,3,92,2852,-1,0.0,0.35,2.0,-1.1179902120906335,-0.7717100579032691,1.0,2.0
573,3,93,3026,1,2.0,2.6,2.0,0.8607535261228777,1.4543766475869317,3.0,4.0
574,3,94,3254,-1,0.65,2.3,2.0,-0.4748984971712424,1.1575650868549048,2.0,4.0
575,3,95,2383,-1,0.0,2.15,2.0,-1.1179902120906335,1.0091593064888915,1.0,3.0
576,3,96,2269,1,2.75,0.0,2.0,1.6027824279529446,-1.1179902120906335,4.0,1.0
577,3,97,1511,-1,0.05,2.75,2.0,-1.0685216186352957,1.602782427952945,1.0,4.0
578,3,98,14774,-1,1.25,1.7,2.0,0.118724624292811,0.5639419653908514,3.0,3.0
579,3,99,2133,1,2.15,0.0,2.0,1.009159306488891,-1.1179902120906335,3.0,1.0
580,3,100,3904,1,2.9,1.1,2.0,1.7511882083189578,-0.029681156073202045,4.0,2.0
581,3,101,3875,-1,0.2,0.2,2.0,-0.9201158382692824,-0.9201158382692824,2.0,2.0
582,3,102,2880,-1,0.0,0.65,2.0,-1.1179902120906335,-0.4748984971712423,1.0,2.0
583,3,103,1806,-1,0.0,0.65,2.0,-1.1179902120906335,-0.4748984971712423,1.0,2.0
584,3,104,2263,-1,0.35,2.85,2.0,-0.7717100579032691,1.7017196148636207,2.0,4.0
585,3,105,7731,1,2.6,0.5,2.0,1.4543766475869313,-0.6233042775372557,4.0,2.0
586,3,106,3051,-1,0.35,1.25,2.0,-0.7717100579032691,0.11872462429281125,2.0,3.0
587,3,107,2542,-1,0.5,2.6,2.0,-0.6233042775372557,1.4543766475869317,2.0,4.0
588,3,108,3003,1,2.3,0.95,2.0,1.1575650868549043,-0.17808693643921555,4.0,2.0
589,3,109,2876,1,2.6,2.75,2.0,1.4543766475869313,1.602782427952945,4.0,4.0
590,3,110,1992,1,1.1,0.65,2.0,-0.029681156073202257,-0.4748984971712423,2.0,2.0
591,3,111,2447,-1,0.2,1.1,2.0,-0.9201158382692824,-0.029681156073202045,2.0,2.0
592,3,112,4018,-1,0.0,2.3,2.0,-1.1179902120906335,1.1575650868549048,1.0,4.0
593,3,113,3263,1,0.35,1.25,2.0,-0.7717100579032691,0.11872462429281125,2.0,3.0
594,3,114,2281,-1,0.0,0.0,2.0,-1.1179902120906335,-1.1179902120906335,1.0,1.0
595,3,115,6951,-1,0.35,0.5,2.0,-0.7717100579032691,-0.6233042775372557,2.0,2.0
596,3,116,3526,1,1.95,0.95,2.0,0.81128493266754,-0.17808693643921555,3.0,2.0
597,3,117,2094,1,3.0,0.35,2.0,1.8501253952296335,-0.7717100579032691,4.0,2.0
598,3,118,3462,-1,2.3,2.85,2.0,1.1575650868549043,1.7017196148636207,4.0,4.0
599,3,119,1916,1,1.1,1.4,2.0,-0.029681156073202257,0.26713040465882454,2.0,3.0
600,3,120,3014,-1,1.95,0.95,1.0,0.81128493266754,-0.17808693643921555,3.0,2.0
601,3,121,1248,-1,1.95,0.2,1.0,0.81128493266754,-0.9201158382692824,3.0,2.0
602,3,122,1962,-1,2.0,0.0,1.0,0.8607535261228777,-1.1179902120906335,3.0,1.0
603,3,123,1814,1,0.35,2.85,1.0,-0.7717100579032691,1.7017196148636207,2.0,4.0
604,3,124,2794,1,0.0,0.0,1.0,-1.1179902120906335,-1.1179902120906335,1.0,1.0
605,3,125,4583,-1,0.35,0.5,1.0,-0.7717100579032691,-0.6233042775372557,2.0,2.0
606,3,126,5363,1,0.2,0.2,1.0,-0.9201158382692824,-0.9201158382692824,2.0,2.0
607,3,127,3832,1,0.35,1.25,1.0,-0.7717100579032691,0.11872462429281125,2.0,3.0
608,3,128,1041,-1,2.15,0.0,1.0,1.009159306488891,-1.1179902120906335,3.0,1.0
609,3,129,2045,1,0.05,2.75,1.0,-1.0685216186352957,1.602782427952945,1.0,4.0
610,3,130,1479,-1,2.6,0.5,1.0,1.4543766475869313,-0.6233042775372557,4.0,2.0
611,3,131,1750,-1,0.35,1.25,1.0,-0.7717100579032691,0.11872462429281125,2.0,3.0
612,3,132,2726,-1,2.9,1.1,1.0,1.7511882083189578,-0.029681156073202045,4.0,2.0
613,3,133,2387,1,0.2,0.05,1.0,-0.9201158382692824,-1.0685216186352957,2.0,1.0
614,3,134,1629,1,0.5,2.6,1.0,-0.6233042775372557,1.4543766475869317,2.0,4.0
615,3,135,3360,-1,2.75,0.0,1.0,1.6027824279529446,-1.1179902120906335,4.0,1.0
616,3,136,1625,-1,2.0,2.6,1.0,0.8607535261228777,1.4543766475869317,3.0,4.0
617,3,137,1991,1,0.0,0.65,1.0,-1.1179902120906335,-0.4748984971712423,1.0,2.0
618,3,138,5695,1,0.0,0.0,1.0,-1.1179902120906335,-1.1179902120906335,1.0,1.0
619,3,139,1470,1,0.2,1.1,1.0,-0.9201158382692824,-0.029681156073202045,2.0,2.0
620,3,140,1108,1,0.0,2.3,1.0,-1.1179902120906335,1.1575650868549048,1.0,4.0
621,3,141,1263,1,0.0,0.5,1.0,-1.1179902120906335,-0.6233042775372557,1.0,2.0
622,3,142,1223,1,0.65,2.3,1.0,-0.4748984971712424,1.1575650868549048,2.0,4.0
623,3,143,944,1,0.0,2.15,1.0,-1.1179902120906335,1.0091593064888915,1.0,3.0
624,3,144,966,-1,3.0,0.35,1.0,1.8501253952296335,-0.7717100579032691,4.0,2.0
625,3,145,1471,-1,2.9,0.5,1.0,1.7511882083189578,-0.6233042775372557,4.0,2.0
626,3,146,1325,-1,2.3,0.95,1.0,1.1575650868549043,-0.17808693643921555,4.0,2.0
627,3,147,2047,-1,0.5,1.7,1.0,-0.6233042775372557,0.5639419653908514,2.0,3.0
628,3,148,1318,1,0.0,0.65,1.0,-1.1179902120906335,-0.4748984971712423,1.0,2.0
629,3,149,1410,-1,2.6,2.75,1.0,1.4543766475869313,1.602782427952945,4.0,4.0
630,3,150,1109,-1,1.1,0.65,1.0,-0.029681156073202257,-0.4748984971712423,2.0,2.0
631,3,151,2158,1,0.0,0.35,1.0,-1.1179902120906335,-0.7717100579032691,1.0,2.0
632,3,152,3687,-1,1.25,1.7,1.0,0.118724624292811,0.5639419653908514,3.0,3.0
633,3,153,2117,-1,1.1,1.4,1.0,-0.029681156073202257,0.26713040465882454,2.0,3.0
634,3,154,1499,-1,2.15,2.75,1.0,1.009159306488891,1.602782427952945,3.0,4.0
635,3,155,871,1,1.25,2.15,1.0,0.118724624292811,1.0091593064888915,3.0,3.0
636,3,156,1230,-1,2.15,0.5,1.0,1.009159306488891,-0.6233042775372557,3.0,2.0
637,3,157,1466,-1,1.25,0.2,1.0,0.118724624292811,-0.9201158382692824,3.0,2.0
638,3,158,1764,1,2.3,2.85,1.0,1.1575650868549043,1.7017196148636207,4.0,4.0
639,3,159,2222,1,0.0,0.35,1.0,-1.1179902120906335,-0.7717100579032691,1.0,2.0
640,3,160,4374,-1,1.25,1.1,2.0,0.118724624292811,-0.029681156073202045,3.0,2.0
641,3,161,1255,1,0.0,3.0,2.0,-1.1179902120906335,1.8501253952296342,1.0,4.0
642,3,162,2214,1,0.5,0.0,2.0,-0.6233042775372557,-1.1179902120906335,2.0,1.0
643,3,163,1485,1,2.75,0.05,2.0,1.6027824279529446,-1.0685216186352957,4.0,1.0
644,3,164,1662,1,0.35,0.0,2.0,-0.7717100579032691,-1.1179902120906335,2.0,1.0
645,3,165,1511,-1,0.5,2.15,2.0,-0.6233042775372557,1.0091593064888915,2.0,3.0
646,3,166,2811,-1,2.15,2.75,2.0,1.009159306488891,1.602782427952945,3.0,4.0
647,3,167,2105,1,2.75,0.0,2.0,1.6027824279529446,-1.1179902120906335,4.0,1.0
648,3,168,1197,-1,0.0,2.15,2.0,-1.1179902120906335,1.0091593064888915,1.0,3.0
649,3,169,1095,-1,0.0,1.1,2.0,-1.1179902120906335,-0.029681156073202045,1.0,2.0
650,3,170,2910,-1,1.7,0.5,2.0,0.5639419653908511,-0.6233042775372557,3.0,2.0
651,3,171,430,-1,0.0,0.95,2.0,-1.1179902120906335,-0.17808693643921555,1.0,2.0
652,3,172,2373,1,2.3,0.0,2.0,1.1575650868549043,-1.1179902120906335,4.0,1.0
653,3,173,1275,-1,1.1,2.9,2.0,-0.029681156073202257,1.7511882083189583,2.0,4.0
654,3,174,2077,-1,0.65,0.95,2.0,-0.4748984971712424,-0.17808693643921555,2.0,2.0
655,3,175,4286,1,2.3,1.1,2.0,1.1575650868549043,-0.029681156073202045,4.0,2.0
656,3,176,3626,-1,2.3,3.0,2.0,1.1575650868549043,1.8501253952296342,4.0,4.0
657,3,177,2098,-1,2.75,2.6,2.0,1.6027824279529446,1.4543766475869317,4.0,4.0
658,3,178,2018,-1,0.5,0.35,2.0,-0.6233042775372557,-0.7717100579032691,2.0,2.0
659,3,179,2155,-1,1.1,0.35,2.0,-0.029681156073202257,-0.7717100579032691,2.0,2.0
660,3,180,1312,-1,0.0,2.3,2.0,-1.1179902120906335,1.1575650868549048,1.0,4.0
661,3,181,2025,-1,0.0,0.0,2.0,-1.1179902120906335,-1.1179902120906335,1.0,1.0
662,3,182,2711,-1,0.35,0.0,2.0,-0.7717100579032691,-1.1179902120906335,2.0,1.0
663,3,183,1879,1,0.05,0.35,2.0,-1.0685216186352957,-0.7717100579032691,1.0,2.0
664,3,184,2481,1,2.3,0.65,2.0,1.1575650868549043,-0.4748984971712423,4.0,2.0
665,3,185,1066,-1,1.4,1.1,2.0,0.26713040465882426,-0.029681156073202045,3.0,2.0
666,3,186,1863,1,3.0,2.0,2.0,1.8501253952296335,0.8607535261228781,4.0,3.0
667,3,187,6252,-1,0.5,0.35,2.0,-0.6233042775372557,-0.7717100579032691,2.0,2.0
668,3,188,1516,1,0.65,0.5,2.0,-0.4748984971712424,-0.6233042775372557,2.0,2.0
669,3,189,1693,-1,0.05,2.0,2.0,-1.0685216186352957,0.8607535261228781,1.0,3.0
670,3,190,1415,1,2.6,0.5,2.0,1.4543766475869313,-0.6233042775372557,4.0,2.0
671,3,191,1477,1,2.15,0.0,2.0,1.009159306488891,-1.1179902120906335,3.0,1.0
672,3,192,1115,-1,0.65,1.1,2.0,-0.4748984971712424,-0.029681156073202045,2.0,2.0
673,3,193,2117,-1,0.95,2.3,2.0,-0.17808693643921575,1.1575650868549048,2.0,4.0
674,3,194,3668,1,1.4,0.0,2.0,0.26713040465882426,-1.1179902120906335,3.0,1.0
675,3,195,1212,1,2.15,1.25,2.0,1.009159306488891,0.11872462429281125,3.0,3.0
676,3,196,1658,1,2.85,0.35,2.0,1.7017196148636202,-0.7717100579032691,4.0,2.0
677,3,197,1081,-1,0.5,0.95,2.0,-0.6233042775372557,-0.17808693643921555,2.0,2.0
678,3,198,1605,1,0.2,0.2,2.0,-0.9201158382692824,-0.9201158382692824,2.0,2.0
679,3,199,2735,1,2.85,2.3,2.0,1.7017196148636202,1.1575650868549048,4.0,4.0
680,3,200,1351,-1,0.35,0.0,1.0,-0.7717100579032691,-1.1179902120906335,2.0,1.0
681,3,201,1418,1,0.5,0.95,1.0,-0.6233042775372557,-0.17808693643921555,2.0,2.0
682,3,202,1152,1,0.0,1.1,1.0,-1.1179902120906335,-0.029681156073202045,1.0,2.0
683,3,203,2764,1,1.25,1.1,1.0,0.118724624292811,-0.029681156073202045,3.0,2.0
684,3,204,2555,1,2.75,2.6,1.0,1.6027824279529446,1.4543766475869317,4.0,4.0
685,3,205,1966,1,0.0,3.0,1.0,-1.1179902120906335,1.8501253952296342,1.0,4.0
686,3,206,1839,1,0.65,1.1,1.0,-0.4748984971712424,-0.029681156073202045,2.0,2.0
687,3,207,1619,-1,2.15,1.25,1.0,1.009159306488891,0.11872462429281125,3.0,3.0
688,3,208,4705,1,2.3,3.0,1.0,1.1575650868549043,1.8501253952296342,4.0,4.0
689,3,209,1404,-1,0.65,0.5,1.0,-0.4748984971712424,-0.6233042775372557,2.0,2.0
690,3,210,2197,-1,2.3,0.0,1.0,1.1575650868549043,-1.1179902120906335,4.0,1.0
691,3,211,2248,-1,2.85,2.3,1.0,1.7017196148636202,1.1575650868549048,4.0,4.0
692,3,212,2783,-1,2.3,1.1,1.0,1.1575650868549043,-0.029681156073202045,4.0,2.0
693,3,213,1276,1,0.5,0.35,1.0,-0.6233042775372557,-0.7717100579032691,2.0,2.0
694,3,214,1925,-1,0.35,0.0,1.0,-0.7717100579032691,-1.1179902120906335,2.0,1.0
695,3,215,1836,-1,3.0,2.0,1.0,1.8501253952296335,0.8607535261228781,4.0,3.0
696,3,216,2134,-1,2.3,0.65,1.0,1.1575650868549043,-0.4748984971712423,4.0,2.0
697,3,217,1352,1,0.0,2.15,1.0,-1.1179902120906335,1.0091593064888915,1.0,3.0
698,3,218,1285,-1,2.85,0.35,1.0,1.7017196148636202,-0.7717100579032691,4.0,2.0
699,3,219,1344,1,0.0,0.95,1.0,-1.1179902120906335,-0.17808693643921555,1.0,2.0
700,3,220,1834,1,1.7,0.5,1.0,0.5639419653908511,-0.6233042775372557,3.0,2.0
701,3,221,2169,1,1.1,0.35,1.0,-0.029681156073202257,-0.7717100579032691,2.0,2.0
702,3,222,1192,-1,2.15,0.0,1.0,1.009159306488891,-1.1179902120906335,3.0,1.0
703,3,223,1448,1,1.1,2.9,1.0,-0.029681156073202257,1.7511882083189583,2.0,4.0
704,3,224,1618,1,0.05,2.0,1.0,-1.0685216186352957,0.8607535261228781,1.0,3.0
705,3,225,2337,-1,0.2,0.2,1.0,-0.9201158382692824,-0.9201158382692824,2.0,2.0
706,3,226,1817,-1,2.75,0.0,1.0,1.6027824279529446,-1.1179902120906335,4.0,1.0
707,3,227,953,-1,2.75,0.05,1.0,1.6027824279529446,-1.0685216186352957,4.0,1.0
708,3,228,1666,1,0.65,0.95,1.0,-0.4748984971712424,-0.17808693643921555,2.0,2.0
709,3,229,1120,-1,2.6,0.5,1.0,1.4543766475869313,-0.6233042775372557,4.0,2.0
710,3,230,1819,1,0.95,2.3,1.0,-0.17808693643921575,1.1575650868549048,2.0,4.0
711,3,231,1672,1,1.4,1.1,1.0,0.26713040465882426,-0.029681156073202045,3.0,2.0
712,3,232,4290,-1,0.5,0.0,1.0,-0.6233042775372557,-1.1179902120906335,2.0,1.0
713,3,233,1477,1,2.15,2.75,1.0,1.009159306488891,1.602782427952945,3.0,4.0
714,3,234,1372,1,0.0,2.3,1.0,-1.1179902120906335,1.1575650868549048,1.0,4.0
715,3,235,1507,1,0.5,2.15,1.0,-0.6233042775372557,1.0091593064888915,2.0,3.0
716,3,236,2567,-1,1.4,0.0,1.0,0.26713040465882426,-1.1179902120906335,3.0,1.0
717,3,237,1513,1,0.0,0.0,1.0,-1.1179902120906335,-1.1179902120906335,1.0,1.0
718,3,238,1648,1,0.05,0.35,1.0,-1.0685216186352957,-0.7717100579032691,1.0,2.0
719,3,239,1125,1,0.5,0.35,1.0,-0.6233042775372557,-0.7717100579032691,2.0,2.0
720,4,0,4777,-1,0.0,0.95,2.0,-1.2619735879065432,0.2636360517683868,0.0,3.0
721,4,1,7090,-1,0.05,0.95,2.0,-1.1816783437131257,0.2636360517683868,1.0,3.0
722,4,2,4338,1,1.55,0.05,2.0,1.227178982089394,-1.181678343713125,4.0,1.0
723,4,3,11097,-1,1.1,0.95,2.0,0.504521784348638,0.2636360517683868,3.0,3.0
724,4,4,5289,-1,0.95,1.1,2.0,0.26363605176838584,0.504521784348639,3.0,3.0
725,4,5,3754,1,1.1,0.5,2.0,0.504521784348638,-0.45902114597236915,3.0,2.0
726,4,6,3146,-1,0.35,1.1,2.0,-0.699906878552622,0.504521784348639,1.0,3.0
727,4,7,2635,1,1.7,1.4,2.0,1.4680647146696457,0.9862932495091427,5.0,4.0
728,4,8,3422,-1,0.0,0.5,2.0,-1.2619735879065432,-0.45902114597236915,0.0,2.0
729,4,9,9677,1,2.45,1.1,2.0,2.6724933775709054,0.504521784348639,5.0,3.0
730,4,10,2342,-1,0.0,0.05,2.0,-1.2619735879065432,-1.181678343713125,0.0,1.0
731,4,11,2643,1,1.25,0.5,2.0,0.7454075169288898,-0.45902114597236915,4.0,2.0
732,4,12,2593,-1,0.95,1.55,2.0,0.26363605176838584,1.227178982089395,3.0,4.0
733,4,13,2975,-1,0.0,0.05,2.0,-1.2619735879065432,-1.181678343713125,0.0,1.0
734,4,14,3094,-1,0.95,1.1,2.0,0.26363605176838584,0.504521784348639,3.0,3.0
735,4,15,2419,1,0.65,0.0,2.0,-0.21813541339211798,-1.2619735879065426,2.0,0.0
736,4,16,9847,1,1.4,0.95,2.0,0.9862932495091417,0.2636360517683868,4.0,3.0
737,4,17,2667,1,0.95,0.05,2.0,0.26363605176838584,-1.181678343713125,3.0,1.0
738,4,18,2451,1,0.65,0.0,2.0,-0.21813541339211798,-1.2619735879065426,2.0,0.0
739,4,19,1832,-1,0.0,0.05,2.0,-1.2619735879065432,-1.181678343713125,0.0,1.0
740,4,20,4519,-1,0.05,0.95,2.0,-1.1816783437131257,0.2636360517683868,1.0,3.0
741,4,21,2357,-1,0.05,1.1,2.0,-1.1816783437131257,0.504521784348639,1.0,3.0
742,4,22,2320,-1,0.35,0.8,2.0,-0.699906878552622,0.0227503191881349,1.0,3.0
743,4,23,3029,-1,0.35,1.55,2.0,-0.699906878552622,1.227178982089395,1.0,4.0
744,4,24,3476,-1,0.65,1.7,2.0,-0.21813541339211798,1.4680647146696468,2.0,5.0
745,4,25,2531,1,0.95,0.0,2.0,0.26363605176838584,-1.2619735879065426,3.0,0.0
746,4,26,4449,-1,0.8,0.95,2.0,0.022750319188134006,0.2636360517683868,3.0,3.0
747,4,27,2778,1,1.4,0.0,2.0,0.9862932495091417,-1.2619735879065426,4.0,0.0
748,4,28,3198,1,1.25,0.0,2.0,0.7454075169288898,-1.2619735879065426,4.0,0.0
749,4,29,2604,1,0.95,0.0,2.0,0.26363605176838584,-1.2619735879065426,3.0,0.0
750,4,30,1736,-1,0.0,1.55,2.0,-1.2619735879065432,1.227178982089395,0.0,4.0
751,4,31,1528,-1,0.0,1.1,2.0,-1.2619735879065432,0.504521784348639,0.0,3.0
752,4,32,7987,-1,0.0,0.0,2.0,-1.2619735879065432,-1.2619735879065426,0.0,0.0
753,4,33,1808,-1,0.05,0.65,2.0,-1.1816783437131257,-0.21813541339211714,1.0,2.0
754,4,34,7586,1,0.95,0.95,2.0,0.26363605176838584,0.2636360517683868,3.0,3.0
755,4,35,2152,1,0.95,0.0,2.0,0.26363605176838584,-1.2619735879065426,3.0,0.0
756,4,36,5162,1,0.95,1.25,2.0,0.26363605176838584,0.7454075169288908,3.0,4.0
757,4,37,4705,1,0.95,0.05,2.0,0.26363605176838584,-1.181678343713125,3.0,1.0
758,4,38,8093,-1,0.95,2.3,2.0,0.26363605176838584,2.4316076449906547,3.0,5.0
759,4,39,8516,-1,0.35,0.8,2.0,-0.699906878552622,0.0227503191881349,1.0,3.0
760,4,40,3916,-1,0.0,0.0,1.0,-1.2619735879065432,-1.2619735879065426,0.0,0.0
761,4,41,2427,-1,2.45,0.65,1.0,2.6724933775709054,-0.21813541339211714,5.0,2.0
762,4,42,3746,1,0.05,0.35,1.0,-1.1816783437131257,-0.6999068785526212,1.0,1.0
763,4,43,3621,-1,1.1,0.35,1.0,0.504521784348638,-0.6999068785526212,3.0,1.0
764,4,44,2167,1,1.55,0.95,1.0,1.227178982089394,0.2636360517683868,4.0,3.0
765,4,45,2378,-1,2.45,1.55,1.0,2.6724933775709054,1.227178982089395,5.0,4.0
766,4,46,3483,-1,1.1,0.65,1.0,0.504521784348638,-0.21813541339211714,3.0,2.0
767,4,47,2759,1,0.0,0.95,1.0,-1.2619735879065432,0.2636360517683868,0.0,3.0
768,4,48,11236,1,0.05,0.65,1.0,-1.1816783437131257,-0.21813541339211714,1.0,2.0
769,4,49,2620,1,0.05,0.95,1.0,-1.1816783437131257,0.2636360517683868,1.0,3.0
770,4,50,5035,-1,0.95,1.1,1.0,0.26363605176838584,0.504521784348639,3.0,3.0
771,4,51,6939,-1,1.4,1.25,1.0,0.9862932495091417,0.7454075169288908,4.0,4.0
772,4,52,2210,1,0.0,0.95,1.0,-1.2619735879065432,0.2636360517683868,0.0,3.0
773,4,53,1773,1,0.05,1.4,1.0,-1.1816783437131257,0.9862932495091427,1.0,4.0
774,4,54,1790,1,0.0,0.65,1.0,-1.2619735879065432,-0.21813541339211714,0.0,2.0
775,4,55,4010,1,1.55,0.2,1.0,1.227178982089394,-0.9407926111328733,4.0,1.0
776,4,56,2599,1,0.0,1.25,1.0,-1.2619735879065432,0.7454075169288908,0.0,4.0
777,4,57,8879,-1,2.45,0.65,1.0,2.6724933775709054,-0.21813541339211714,5.0,2.0
778,4,58,2397,-1,1.4,0.65,1.0,0.9862932495091417,-0.21813541339211714,4.0,2.0
779,4,59,2316,-1,0.65,0.05,1.0,-0.21813541339211798,-1.181678343713125,2.0,1.0
780,4,60,1897,-1,1.7,0.65,1.0,1.4680647146696457,-0.21813541339211714,5.0,2.0
781,4,61,7320,1,0.5,0.65,1.0,-0.45902114597237,-0.21813541339211714,2.0,2.0
782,4,62,3510,-1,0.05,0.0,1.0,-1.1816783437131257,-1.2619735879065426,1.0,0.0
783,4,63,2683,1,0.05,1.55,1.0,-1.1816783437131257,1.227178982089395,1.0,4.0
784,4,64,1943,1,0.05,0.65,1.0,-1.1816783437131257,-0.21813541339211714,1.0,2.0
785,4,65,1684,-1,0.65,0.2,1.0,-0.21813541339211798,-0.9407926111328733,2.0,1.0
786,4,66,3811,1,0.95,1.4,1.0,0.26363605176838584,0.9862932495091427,3.0,4.0
787,4,67,1739,1,0.5,1.25,1.0,-0.45902114597237,0.7454075169288908,2.0,4.0
788,4,68,2891,-1,0.8,0.35,1.0,0.022750319188134006,-0.6999068785526212,3.0,1.0
789,4,69,4217,1,0.65,2.3,1.0,-0.21813541339211798,2.4316076449906547,2.0,5.0
790,4,70,6103,1,0.95,0.95,1.0,0.26363605176838584,0.2636360517683868,3.0,3.0
791,4,71,5579,-1,0.8,0.8,1.0,0.022750319188134006,0.0227503191881349,3.0,3.0
792,4,72,4646,1,0.8,0.35,1.0,0.022750319188134006,-0.6999068785526212,3.0,1.0
793,4,73,4253,1,0.05,0.95,1.0,-1.1816783437131257,0.2636360517683868,1.0,3.0
794,4,74,2616,1,1.25,0.95,1.0,0.7454075169288898,0.2636360517683868,4.0,3.0
795,4,75,5075,-1,0.95,0.8,1.0,0.26363605176838584,0.0227503191881349,3.0,3.0
796,4,76,2093,-1,0.65,0.8,1.0,-0.21813541339211798,0.0227503191881349,2.0,3.0
797,4,77,4899,1,1.1,1.55,1.0,0.504521784348638,1.227178982089395,3.0,4.0
798,4,78,4563,1,1.1,0.95,1.0,0.504521784348638,0.2636360517683868,3.0,3.0
799,4,79,2354,-1,0.95,0.0,1.0,0.26363605176838584,-1.2619735879065426,3.0,0.0
800,4,80,8523,1,1.55,1.1,2.0,1.227178982089394,0.504521784348639,4.0,3.0
801,4,81,2491,1,0.95,0.05,2.0,0.26363605176838584,-1.181678343713125,3.0,1.0
802,4,82,2304,-1,0.0,0.65,2.0,-1.2619735879065432,-0.21813541339211714,0.0,2.0
803,4,83,2587,1,1.4,0.05,2.0,0.9862932495091417,-1.181678343713125,4.0,1.0
804,4,84,2710,1,2.3,0.65,2.0,2.431607644990653,-0.21813541339211714,5.0,2.0
805,4,85,4325,1,0.65,0.05,2.0,-0.21813541339211798,-1.181678343713125,2.0,1.0
806,4,86,2295,1,0.65,0.05,2.0,-0.21813541339211798,-1.181678343713125,2.0,1.0
807,4,87,2445,-1,0.8,0.65,2.0,0.022750319188134006,-0.21813541339211714,3.0,2.0
808,4,88,3839,1,1.55,0.95,2.0,1.227178982089394,0.2636360517683868,4.0,3.0
809,4,89,2748,1,1.55,0.35,2.0,1.227178982089394,-0.6999068785526212,4.0,1.0
810,4,90,2838,1,0.65,0.5,2.0,-0.21813541339211798,-0.45902114597236915,2.0,2.0
811,4,91,5352,1,1.55,2.45,2.0,1.227178982089394,2.672493377570907,4.0,5.0
812,4,92,3472,-1,0.65,1.4,2.0,-0.21813541339211798,0.9862932495091427,2.0,4.0
813,4,93,1811,-1,0.8,0.8,2.0,0.022750319188134006,0.0227503191881349,3.0,3.0
814,4,94,3039,1,0.5,0.0,2.0,-0.45902114597237,-1.2619735879065426,2.0,0.0
815,4,95,2841,1,0.35,0.05,2.0,-0.699906878552622,-1.181678343713125,1.0,1.0
816,4,96,11103,1,0.8,0.35,2.0,0.022750319188134006,-0.6999068785526212,3.0,1.0
817,4,97,1573,-1,0.65,2.45,2.0,-0.21813541339211798,2.672493377570907,2.0,5.0
818,4,98,1916,1,1.55,0.0,2.0,1.227178982089394,-1.2619735879065426,4.0,0.0
819,4,99,3020,1,0.05,0.0,2.0,-1.1816783437131257,-1.2619735879065426,1.0,0.0
820,4,100,3972,1,2.3,0.95,2.0,2.431607644990653,0.2636360517683868,5.0,3.0
821,4,101,3019,-1,0.8,0.95,2.0,0.022750319188134006,0.2636360517683868,3.0,3.0
822,4,102,6740,1,0.5,1.1,2.0,-0.45902114597237,0.504521784348639,2.0,3.0
823,4,103,2329,1,0.95,0.8,2.0,0.26363605176838584,0.0227503191881349,3.0,3.0
824,4,104,4697,-1,1.1,2.45,2.0,0.504521784348638,2.672493377570907,3.0,5.0
825,4,105,6004,-1,0.35,0.8,2.0,-0.699906878552622,0.0227503191881349,1.0,3.0
826,4,106,2018,1,1.1,0.0,2.0,0.504521784348638,-1.2619735879065426,3.0,0.0
827,4,107,2470,1,0.2,1.55,2.0,-0.9407926111328738,1.227178982089395,1.0,4.0
828,4,108,2635,1,1.25,1.4,2.0,0.7454075169288898,0.9862932495091427,4.0,4.0
829,4,109,1999,1,1.1,0.05,2.0,0.504521784348638,-1.181678343713125,3.0,1.0
830,4,110,3486,-1,0.65,1.1,2.0,-0.21813541339211798,0.504521784348639,2.0,3.0
831,4,111,1772,1,1.1,0.95,2.0,0.504521784348638,0.2636360517683868,3.0,3.0
832,4,112,3926,1,0.95,0.05,2.0,0.26363605176838584,-1.181678343713125,3.0,1.0
833,4,113,2001,-1,0.0,0.95,2.0,-1.2619735879065432,0.2636360517683868,0.0,3.0
834,4,114,2195,-1,1.4,1.7,2.0,0.9862932495091417,1.4680647146696468,4.0,5.0
835,4,115,2002,-1,0.0,1.4,2.0,-1.2619735879065432,0.9862932495091427,0.0,4.0
836,4,116,1932,1,0.05,0.0,2.0,-1.1816783437131257,-1.2619735879065426,1.0,0.0
837,4,117,2868,1,0.65,2.45,2.0,-0.21813541339211798,2.672493377570907,2.0,5.0
838,4,118,2314,-1,0.2,0.65,2.0,-0.9407926111328738,-0.21813541339211714,1.0,2.0
839,4,119,2149,1,0.95,1.55,2.0,0.26363605176838584,1.227178982089395,3.0,4.0
840,4,120,3952,1,0.0,0.05,1.0,-1.2619735879065432,-1.181678343713125,0.0,1.0
841,4,121,1354,-1,1.25,0.5,1.0,0.7454075169288898,-0.45902114597236915,4.0,2.0
842,4,122,1708,1,0.95,1.1,1.0,0.26363605176838584,0.504521784348639,3.0,3.0
843,4,123,1662,-1,0.95,1.25,1.0,0.26363605176838584,0.7454075169288908,3.0,4.0
844,4,124,3300,-1,1.4,0.95,1.0,0.9862932495091417,0.2636360517683868,4.0,3.0
845,4,125,2187,1,0.35,1.55,1.0,-0.699906878552622,1.227178982089395,1.0,4.0
846,4,126,1537,-1,0.95,0.0,1.0,0.26363605176838584,-1.2619735879065426,3.0,0.0
847,4,127,4601,1,0.05,0.95,1.0,-1.1816783437131257,0.2636360517683868,1.0,3.0
848,4,128,1768,-1,0.0,0.05,1.0,-1.2619735879065432,-1.181678343713125,0.0,1.0
849,4,129,2069,-1,1.7,1.4,1.0,1.4680647146696457,0.9862932495091427,5.0,4.0
850,4,130,3884,1,0.0,0.0,1.0,-1.2619735879065432,-1.2619735879065426,0.0,0.0
851,4,131,1877,1,0.05,1.1,1.0,-1.1816783437131257,0.504521784348639,1.0,3.0
852,4,132,1563,-1,1.4,0.0,1.0,0.9862932495091417,-1.2619735879065426,4.0,0.0
853,4,133,1706,1,0.0,1.1,1.0,-1.2619735879065432,0.504521784348639,0.0,3.0
854,4,134,4268,-1,0.95,0.95,1.0,0.26363605176838584,0.2636360517683868,3.0,3.0
855,4,135,1762,1,0.65,1.7,1.0,-0.21813541339211798,1.4680647146696468,2.0,5.0
856,4,136,1773,1,0.35,1.1,1.0,-0.699906878552622,0.504521784348639,1.0,3.0
857,4,137,7000,-1,0.95,0.05,1.0,0.26363605176838584,-1.181678343713125,3.0,1.0
858,4,138,3982,-1,0.65,0.0,1.0,-0.21813541339211798,-1.2619735879065426,2.0,0.0
859,4,139,1869,-1,0.95,0.0,1.0,0.26363605176838584,-1.2619735879065426,3.0,0.0
860,4,140,2105,-1,0.95,0.0,1.0,0.26363605176838584,-1.2619735879065426,3.0,0.0
861,4,141,1507,-1,0.95,0.05,1.0,0.26363605176838584,-1.181678343713125,3.0,1.0
862,4,142,2742,1,0.35,0.8,1.0,-0.699906878552622,0.0227503191881349,1.0,3.0
863,4,143,2430,1,0.05,0.65,1.0,-1.1816783437131257,-0.21813541339211714,1.0,2.0
864,4,144,2550,1,0.0,0.5,1.0,-1.2619735879065432,-0.45902114597236915,0.0,2.0
865,4,145,2499,1,1.1,0.5,1.0,0.504521784348638,-0.45902114597236915,3.0,2.0
866,4,146,3249,-1,0.95,1.1,1.0,0.26363605176838584,0.504521784348639,3.0,3.0
867,4,147,2161,1,0.0,1.55,1.0,-1.2619735879065432,1.227178982089395,0.0,4.0
868,4,148,2270,1,0.8,0.95,1.0,0.022750319188134006,0.2636360517683868,3.0,3.0
869,4,149,2322,-1,0.65,0.0,1.0,-0.21813541339211798,-1.2619735879065426,2.0,0.0
870,4,150,1885,1,0.0,0.05,1.0,-1.2619735879065432,-1.181678343713125,0.0,1.0
871,4,151,2328,1,0.05,0.95,1.0,-1.1816783437131257,0.2636360517683868,1.0,3.0
872,4,152,1789,1,0.0,0.95,1.0,-1.2619735879065432,0.2636360517683868,0.0,3.0
873,4,153,3082,1,1.1,0.95,1.0,0.504521784348638,0.2636360517683868,3.0,3.0
874,4,154,2710,1,0.95,2.3,1.0,0.26363605176838584,2.4316076449906547,3.0,5.0
875,4,155,3318,-1,2.45,1.1,1.0,2.6724933775709054,0.504521784348639,5.0,3.0
876,4,156,1596,-1,1.55,0.05,1.0,1.227178982089394,-1.181678343713125,4.0,1.0
877,4,157,2020,1,0.95,1.55,1.0,0.26363605176838584,1.227178982089395,3.0,4.0
878,4,158,1498,-1,1.25,0.0,1.0,0.7454075169288898,-1.2619735879065426,4.0,0.0
879,4,159,3854,1,0.35,0.8,1.0,-0.699906878552622,0.0227503191881349,1.0,3.0
880,4,160,4482,1,0.05,0.65,2.0,-1.1816783437131257,-0.21813541339211714,1.0,2.0
881,4,161,2049,1,0.65,0.8,2.0,-0.21813541339211798,0.0227503191881349,2.0,3.0
882,4,162,2621,-1,1.1,0.65,2.0,0.504521784348638,-0.21813541339211714,3.0,2.0
883,4,163,3313,-1,1.1,0.95,2.0,0.504521784348638,0.2636360517683868,3.0,3.0
884,4,164,1616,-1,1.55,0.95,2.0,1.227178982089394,0.2636360517683868,4.0,3.0
885,4,165,1869,1,2.45,0.65,2.0,2.6724933775709054,-0.21813541339211714,5.0,2.0
886,4,166,4355,1,0.8,0.35,2.0,0.022750319188134006,-0.6999068785526212,3.0,1.0
887,4,167,1976,-1,0.05,0.95,2.0,-1.1816783437131257,0.2636360517683868,1.0,3.0
888,4,168,1653,-1,0.05,0.95,2.0,-1.1816783437131257,0.2636360517683868,1.0,3.0
889,4,169,2198,-1,0.5,1.25,2.0,-0.45902114597237,0.7454075169288908,2.0,4.0
890,4,170,1692,1,0.8,0.35,2.0,0.022750319188134006,-0.6999068785526212,3.0,1.0
891,4,171,1836,-1,0.0,0.95,2.0,-1.2619735879065432,0.2636360517683868,0.0,3.0
892,4,172,1472,1,0.8,0.8,2.0,0.022750319188134006,0.0227503191881349,3.0,3.0
893,4,173,4448,1,2.45,0.65,2.0,2.6724933775709054,-0.21813541339211714,5.0,2.0
894,4,174,1249,-1,0.05,1.55,2.0,-1.1816783437131257,1.227178982089395,1.0,4.0
895,4,175,5278,-1,0.5,0.65,2.0,-0.45902114597237,-0.21813541339211714,2.0,2.0
896,4,176,2021,-1,0.0,0.95,2.0,-1.2619735879065432,0.2636360517683868,0.0,3.0
897,4,177,7385,1,0.95,0.8,2.0,0.26363605176838584,0.0227503191881349,3.0,3.0
898,4,178,2576,-1,1.25,0.95,2.0,0.7454075169288898,0.2636360517683868,4.0,3.0
899,4,179,1866,1,0.65,0.05,2.0,-0.21813541339211798,-1.181678343713125,2.0,1.0
900,4,180,4400,1,0.95,1.1,2.0,0.26363605176838584,0.504521784348639,3.0,3.0
901,4,181,1694,1,0.05,0.0,2.0,-1.1816783437131257,-1.2619735879065426,1.0,0.0
902,4,182,2222,1,2.45,1.55,2.0,2.6724933775709054,1.227178982089395,5.0,4.0
903,4,183,1475,-1,0.05,1.4,2.0,-1.1816783437131257,0.9862932495091427,1.0,4.0
904,4,184,4503,-1,1.1,1.55,2.0,0.504521784348638,1.227178982089395,3.0,4.0
905,4,185,1636,1,0.65,0.2,2.0,-0.21813541339211798,-0.9407926111328733,2.0,1.0
906,4,186,1509,-1,0.0,0.65,2.0,-1.2619735879065432,-0.21813541339211714,0.0,2.0
907,4,187,1361,-1,1.55,0.2,2.0,1.227178982089394,-0.9407926111328733,4.0,1.0
908,4,188,1715,-1,0.05,0.35,2.0,-1.1816783437131257,-0.6999068785526212,1.0,1.0
909,4,189,2088,1,1.4,0.65,2.0,0.9862932495091417,-0.21813541339211714,4.0,2.0
910,4,190,1992,1,1.1,0.35,2.0,0.504521784348638,-0.6999068785526212,3.0,1.0
911,4,191,2412,1,1.7,0.65,2.0,1.4680647146696457,-0.21813541339211714,5.0,2.0
912,4,192,2200,1,0.95,0.0,2.0,0.26363605176838584,-1.2619735879065426,3.0,0.0
913,4,193,3664,-1,0.65,2.3,2.0,-0.21813541339211798,2.4316076449906547,2.0,5.0
914,4,194,9602,1,1.4,1.25,2.0,0.9862932495091417,0.7454075169288908,4.0,4.0
915,4,195,2676,-1,0.95,1.4,2.0,0.26363605176838584,0.9862932495091427,3.0,4.0
916,4,196,1788,1,0.0,0.0,2.0,-1.2619735879065432,-1.2619735879065426,0.0,0.0
917,4,197,1656,-1,0.0,1.25,2.0,-1.2619735879065432,0.7454075169288908,0.0,4.0
918,4,198,1366,-1,0.05,0.65,2.0,-1.1816783437131257,-0.21813541339211714,1.0,2.0
919,4,199,3515,-1,0.95,0.95,2.0,0.26363605176838584,0.2636360517683868,3.0,3.0
920,4,200,3897,-1,0.95,0.8,1.0,0.26363605176838584,0.0227503191881349,3.0,3.0
921,4,201,1515,-1,0.95,1.55,1.0,0.26363605176838584,1.227178982089395,3.0,4.0
922,4,202,2095,1,0.8,0.65,1.0,0.022750319188134006,-0.21813541339211714,3.0,2.0
923,4,203,1847,-1,1.55,0.95,1.0,1.227178982089394,0.2636360517683868,4.0,3.0
924,4,204,3787,1,0.65,0.5,1.0,-0.21813541339211798,-0.45902114597236915,2.0,2.0
925,4,205,3488,-1,1.55,1.1,1.0,1.227178982089394,0.504521784348639,4.0,3.0
926,4,206,4082,1,0.8,0.95,1.0,0.022750319188134006,0.2636360517683868,3.0,3.0
927,4,207,2037,1,0.2,0.65,1.0,-0.9407926111328738,-0.21813541339211714,1.0,2.0
928,4,208,1874,1,0.8,0.8,1.0,0.022750319188134006,0.0227503191881349,3.0,3.0
929,4,209,1663,1,0.0,1.4,1.0,-1.2619735879065432,0.9862932495091427,0.0,4.0
930,4,210,5986,-1,0.8,0.35,1.0,0.022750319188134006,-0.6999068785526212,3.0,1.0
931,4,211,7087,1,1.25,1.4,1.0,0.7454075169288898,0.9862932495091427,4.0,4.0
932,4,212,1695,1,0.0,0.65,1.0,-1.2619735879065432,-0.21813541339211714,0.0,2.0
933,4,213,1739,1,0.65,1.4,1.0,-0.21813541339211798,0.9862932495091427,2.0,4.0
934,4,214,3157,-1,2.3,0.65,1.0,2.431607644990653,-0.21813541339211714,5.0,2.0
935,4,215,1509,-1,1.1,0.0,1.0,0.504521784348638,-1.2619735879065426,3.0,0.0
936,4,216,4811,1,0.65,2.45,1.0,-0.21813541339211798,2.672493377570907,2.0,5.0
937,4,217,1924,-1,0.95,0.05,1.0,0.26363605176838584,-1.181678343713125,3.0,1.0
938,4,218,1294,-1,0.65,0.05,1.0,-0.21813541339211798,-1.181678343713125,2.0,1.0
939,4,219,1835,-1,0.2,1.55,1.0,-0.9407926111328738,1.227178982089395,1.0,4.0
940,4,220,2191,1,0.0,0.95,1.0,-1.2619735879065432,0.2636360517683868,0.0,3.0
941,4,221,1573,1,1.4,1.7,1.0,0.9862932495091417,1.4680647146696468,4.0,5.0
942,4,222,2013,-1,2.3,0.95,1.0,2.431607644990653,0.2636360517683868,5.0,3.0
943,4,223,1253,-1,1.55,0.35,1.0,1.227178982089394,-0.6999068785526212,4.0,1.0
944,4,224,2332,-1,0.5,0.0,1.0,-0.45902114597237,-1.2619735879065426,2.0,0.0
945,4,225,3469,1,1.55,2.45,1.0,1.227178982089394,2.672493377570907,4.0,5.0
946,4,226,7005,-1,0.35,0.8,1.0,-0.699906878552622,0.0227503191881349,1.0,3.0
947,4,227,4749,-1,0.95,0.05,1.0,0.26363605176838584,-1.181678343713125,3.0,1.0
948,4,228,2096,1,1.1,2.45,1.0,0.504521784348638,2.672493377570907,3.0,5.0
949,4,229,1272,-1,1.55,0.0,1.0,1.227178982089394,-1.2619735879065426,4.0,0.0
950,4,230,3300,-1,0.35,0.05,1.0,-0.699906878552622,-1.181678343713125,1.0,1.0
951,4,231,1336,-1,1.1,0.05,1.0,0.504521784348638,-1.181678343713125,3.0,1.0
952,4,232,1260,-1,1.4,0.05,1.0,0.9862932495091417,-1.181678343713125,4.0,1.0
953,4,233,1340,-1,0.05,0.0,1.0,-1.1816783437131257,-1.2619735879065426,1.0,0.0
954,4,234,3912,-1,0.65,0.05,1.0,-0.21813541339211798,-1.181678343713125,2.0,1.0
955,4,235,1344,-1,0.05,0.0,1.0,-1.1816783437131257,-1.2619735879065426,1.0,0.0
956,4,236,3005,1,0.65,1.1,1.0,-0.21813541339211798,0.504521784348639,2.0,3.0
957,4,237,1676,-1,1.1,0.95,1.0,0.504521784348638,0.2636360517683868,3.0,3.0
958,4,238,2666,-1,0.5,1.1,1.0,-0.45902114597237,0.504521784348639,2.0,3.0
959,4,239,1883,1,0.65,2.45,1.0,-0.21813541339211798,2.672493377570907,2.0,5.0
960,5,0,5222,1,0.0,0.0,2.0,-0.7279027353854134,-0.7279027353854154,1.0,1.0
961,5,1,3005,1,0.65,0.0,2.0,1.0519221348359737,-0.7279027353854154,5.0,1.0
962,5,2,4264,-1,0.0,0.0,2.0,-0.7279027353854134,-0.7279027353854154,1.0,1.0
963,5,3,3576,-1,0.5,0.95,2.0,0.6411933186310382,1.8733797672458514,4.0,5.0
964,5,4,4101,1,0.8,0.65,2.0,1.4626509510409091,1.0519221348359777,5.0,5.0
965,5,5,3769,-1,0.0,0.8,2.0,-0.7279027353854134,1.4626509510409147,1.0,5.0
966,5,6,5630,-1,0.0,0.0,2.0,-0.7279027353854134,-0.7279027353854154,1.0,1.0
967,5,7,7975,1,0.5,0.0,2.0,0.6411933186310382,-0.7279027353854154,4.0,1.0
968,5,8,3312,-1,0.0,0.65,2.0,-0.7279027353854134,1.0519221348359777,1.0,5.0
969,5,9,6307,-1,0.05,0.2,2.0,-0.5909931299837683,-0.18026431377883284,1.0,2.0
970,5,10,2421,-1,0.0,0.8,2.0,-0.7279027353854134,1.4626509510409147,1.0,5.0
971,5,11,3952,1,0.6,0.35,2.0,0.9150125294343285,0.23046450242610392,5.0,3.0
972,5,12,3593,-1,0.0,0.05,2.0,-0.7279027353854134,-0.5909931299837697,1.0,1.0
973,5,13,2755,1,1.1,0.0,2.0,2.2841085834507804,-0.7279027353854154,5.0,1.0
974,5,14,2761,1,0.2,0.0,2.0,-0.1802643137788327,-0.7279027353854154,2.0,1.0
975,5,15,2862,-1,0.35,0.8,2.0,0.2304645024261027,1.4626509510409147,3.0,5.0
976,5,16,3387,1,0.05,0.0,2.0,-0.5909931299837683,-0.7279027353854154,1.0,1.0
977,5,17,7527,-1,0.5,0.65,2.0,0.6411933186310382,1.0519221348359777,4.0,5.0
978,5,18,2628,-1,0.0,0.0,2.0,-0.7279027353854134,-0.7279027353854154,1.0,1.0
979,5,19,2234,-1,0.0,0.05,2.0,-0.7279027353854134,-0.5909931299837697,1.0,1.0
980,5,20,7720,-1,0.5,1.1,2.0,0.6411933186310382,2.2841085834507884,4.0,5.0
981,5,21,2831,-1,0.0,0.8,2.0,-0.7279027353854134,1.4626509510409147,1.0,5.0
982,5,22,9213,1,0.0,0.0,2.0,-0.7279027353854134,-0.7279027353854154,1.0,1.0
983,5,23,2965,-1,0.0,0.95,2.0,-0.7279027353854134,1.8733797672458514,1.0,5.0
984,5,24,2774,1,0.05,0.0,2.0,-0.5909931299837683,-0.7279027353854154,1.0,1.0
985,5,25,5143,-1,0.0,0.0,2.0,-0.7279027353854134,-0.7279027353854154,1.0,1.0
986,5,26,2852,-1,0.0,1.1,2.0,-0.7279027353854134,2.2841085834507884,1.0,5.0
987,5,27,4989,-1,0.0,0.5,2.0,-0.7279027353854134,0.6411933186310409,1.0,4.0
988,5,28,3957,1,0.5,0.0,2.0,0.6411933186310382,-0.7279027353854154,4.0,1.0
989,5,29,2622,-1,0.0,0.95,2.0,-0.7279027353854134,1.8733797672458514,1.0,5.0
990,5,30,3354,1,1.1,0.05,2.0,2.2841085834507804,-0.5909931299837697,5.0,1.0
991,5,31,1733,1,0.6,0.0,2.0,0.9150125294343285,-0.7279027353854154,5.0,1.0
992,5,32,3966,-1,0.0,0.0,2.0,-0.7279027353854134,-0.7279027353854154,1.0,1.0
993,5,33,5645,-1,0.05,0.0,2.0,-0.5909931299837683,-0.7279027353854154,1.0,1.0
994,5,34,7195,-1,0.0,0.0,2.0,-0.7279027353854134,-0.7279027353854154,1.0,1.0
995,5,35,1676,1,1.1,0.0,2.0,2.2841085834507804,-0.7279027353854154,5.0,1.0
996,5,36,1211,1,0.8,0.5,2.0,1.4626509510409091,0.6411933186310409,5.0,4.0
997,5,37,1440,1,0.0,0.0,2.0,-0.7279027353854134,-0.7279027353854154,1.0,1.0
998,5,38,3679,-1,0.05,0.2,2.0,-0.5909931299837683,-0.18026431377883284,1.0,2.0
999,5,39,2146,-1,0.0,0.0,2.0,-0.7279027353854134,-0.7279027353854154,1.0,1.0
1000,5,40,1944,-1,0.05,0.0,1.0,-0.5909931299837683,-0.7279027353854154,1.0,1.0
1001,5,41,3591,1,0.0,0.0,1.0,-0.7279027353854134,-0.7279027353854154,1.0,1.0
1002,5,42,1669,-1,0.8,0.65,1.0,1.4626509510409091,1.0519221348359777,5.0,5.0
1003,5,43,1473,-1,0.6,0.0,1.0,0.9150125294343285,-0.7279027353854154,5.0,1.0
1004,5,44,1379,1,0.0,0.65,1.0,-0.7279027353854134,1.0519221348359777,1.0,5.0
1005,5,45,2554,1,0.0,0.0,1.0,-0.7279027353854134,-0.7279027353854154,1.0,1.0
1006,5,46,1539,-1,0.5,0.0,1.0,0.6411933186310382,-0.7279027353854154,4.0,1.0
1007,5,47,1370,1,0.0,0.0,1.0,-0.7279027353854134,-0.7279027353854154,1.0,1.0
1008,5,48,1375,1,0.0,0.95,1.0,-0.7279027353854134,1.8733797672458514,1.0,5.0
1009,5,49,3063,1,0.05,0.2,1.0,-0.5909931299837683,-0.18026431377883284,1.0,2.0
1010,5,50,1369,1,0.0,0.05,1.0,-0.7279027353854134,-0.5909931299837697,1.0,1.0
1011,5,51,1598,1,0.0,0.95,1.0,-0.7279027353854134,1.8733797672458514,1.0,5.0
1012,5,52,1833,-1,0.0,0.0,1.0,-0.7279027353854134,-0.7279027353854154,1.0,1.0
1013,5,53,1252,1,0.35,0.8,1.0,0.2304645024261027,1.4626509510409147,3.0,5.0
1014,5,54,1773,-1,0.65,0.0,1.0,1.0519221348359737,-0.7279027353854154,5.0,1.0
1015,5,55,1471,1,0.0,0.8,1.0,-0.7279027353854134,1.4626509510409147,1.0,5.0
1016,5,56,3207,-1,0.5,0.0,1.0,0.6411933186310382,-0.7279027353854154,4.0,1.0
1017,5,57,1903,-1,0.0,0.0,1.0,-0.7279027353854134,-0.7279027353854154,1.0,1.0
1018,5,58,2550,-1,1.1,0.05,1.0,2.2841085834507804,-0.5909931299837697,5.0,1.0
1019,5,59,1988,-1,0.2,0.0,1.0,-0.1802643137788327,-0.7279027353854154,2.0,1.0
1020,5,60,1531,-1,1.1,0.0,1.0,2.2841085834507804,-0.7279027353854154,5.0,1.0
1021,5,61,4111,1,0.5,0.65,1.0,0.6411933186310382,1.0519221348359777,4.0,5.0
1022,5,62,5355,1,0.0,0.0,1.0,-0.7279027353854134,-0.7279027353854154,1.0,1.0
1023,5,63,1387,-1,1.1,0.0,1.0,2.2841085834507804,-0.7279027353854154,5.0,1.0
1024,5,64,1688,-1,0.6,0.35,1.0,0.9150125294343285,0.23046450242610392,5.0,3.0
1025,5,65,3569,1,0.0,0.05,1.0,-0.7279027353854134,-0.5909931299837697,1.0,1.0
1026,5,66,1619,1,0.5,1.1,1.0,0.6411933186310382,2.2841085834507884,4.0,5.0
1027,5,67,4123,1,0.0,0.0,1.0,-0.7279027353854134,-0.7279027353854154,1.0,1.0
1028,5,68,1834,1,0.0,0.0,1.0,-0.7279027353854134,-0.7279027353854154,1.0,1.0
1029,5,69,1416,1,0.05,0.2,1.0,-0.5909931299837683,-0.18026431377883284,1.0,2.0
1030,5,70,1288,1,0.0,0.8,1.0,-0.7279027353854134,1.4626509510409147,1.0,5.0
1031,5,71,1361,1,0.0,1.1,1.0,-0.7279027353854134,2.2841085834507884,1.0,5.0
1032,5,72,1465,1,0.05,0.0,1.0,-0.5909931299837683,-0.7279027353854154,1.0,1.0
1033,5,73,1650,-1,0.05,0.0,1.0,-0.5909931299837683,-0.7279027353854154,1.0,1.0
1034,5,74,2292,1,0.0,0.0,1.0,-0.7279027353854134,-0.7279027353854154,1.0,1.0
1035,5,75,1348,1,0.0,0.5,1.0,-0.7279027353854134,0.6411933186310409,1.0,4.0
1036,5,76,1407,-1,0.8,0.5,1.0,1.4626509510409091,0.6411933186310409,5.0,4.0
1037,5,77,1486,1,0.0,0.8,1.0,-0.7279027353854134,1.4626509510409147,1.0,5.0
1038,5,78,1610,1,0.5,0.95,1.0,0.6411933186310382,1.8733797672458514,4.0,5.0
1039,5,79,2680,-1,0.0,0.0,1.0,-0.7279027353854134,-0.7279027353854154,1.0,1.0
1040,5,80,2987,1,0.0,0.0,2.0,-0.7279027353854134,-0.7279027353854154,1.0,1.0
1041,5,81,1400,1,0.0,0.0,2.0,-0.7279027353854134,-0.7279027353854154,1.0,1.0
1042,5,82,1921,1,0.0,0.0,2.0,-0.7279027353854134,-0.7279027353854154,1.0,1.0
1043,5,83,5268,-1,0.8,0.8,2.0,1.4626509510409091,1.4626509510409147,5.0,5.0
1044,5,84,5303,-1,0.0,1.1,2.0,-0.7279027353854134,2.2841085834507884,1.0,5.0
1045,5,85,1447,1,0.8,0.0,2.0,1.4626509510409091,-0.7279027353854154,5.0,1.0
1046,5,86,1275,-1,0.0,0.5,2.0,-0.7279027353854134,0.6411933186310409,1.0,4.0
1047,5,87,2740,-1,0.0,0.2,2.0,-0.7279027353854134,-0.18026431377883284,1.0,2.0
1048,5,88,1491,1,0.0,0.0,2.0,-0.7279027353854134,-0.7279027353854154,1.0,1.0
1049,5,89,1521,-1,0.5,0.8,2.0,0.6411933186310382,1.4626509510409147,4.0,5.0
1050,5,90,1373,-1,0.0,0.0,2.0,-0.7279027353854134,-0.7279027353854154,1.0,1.0
1051,5,91,1781,1,0.5,0.0,2.0,0.6411933186310382,-0.7279027353854154,4.0,1.0
1052,5,92,2364,1,0.65,0.05,2.0,1.0519221348359737,-0.5909931299837697,5.0,1.0
1053,5,93,3183,1,0.65,0.5,2.0,1.0519221348359737,0.6411933186310409,5.0,4.0
1054,5,94,2299,1,0.0,0.0,2.0,-0.7279027353854134,-0.7279027353854154,1.0,1.0
1055,5,95,1407,1,1.1,0.0,2.0,2.2841085834507804,-0.7279027353854154,5.0,1.0
1056,5,96,1452,1,0.8,0.35,2.0,1.4626509510409091,0.23046450242610392,5.0,3.0
1057,5,97,1164,-1,0.0,0.65,2.0,-0.7279027353854134,1.0519221348359777,1.0,5.0
1058,5,98,2983,1,0.35,0.0,2.0,0.2304645024261027,-0.7279027353854154,3.0,1.0
1059,5,99,1923,1,0.05,0.0,2.0,-0.5909931299837683,-0.7279027353854154,1.0,1.0
1060,5,100,876,-1,0.0,1.1,2.0,-0.7279027353854134,2.2841085834507884,1.0,5.0
1061,5,101,2857,1,0.0,0.0,2.0,-0.7279027353854134,-0.7279027353854154,1.0,1.0
1062,5,102,2844,1,0.0,0.0,2.0,-0.7279027353854134,-0.7279027353854154,1.0,1.0
1063,5,103,2683,1,0.8,0.0,2.0,1.4626509510409091,-0.7279027353854154,5.0,1.0
1064,5,104,1196,1,0.0,0.0,2.0,-0.7279027353854134,-0.7279027353854154,1.0,1.0
1065,5,105,1227,-1,0.0,0.05,2.0,-0.7279027353854134,-0.5909931299837697,1.0,1.0
1066,5,106,1266,1,0.8,0.0,2.0,1.4626509510409091,-0.7279027353854154,5.0,1.0
1067,5,107,1336,1,0.65,0.0,2.0,1.0519221348359737,-0.7279027353854154,5.0,1.0
1068,5,108,2497,1,0.8,0.05,2.0,1.4626509510409091,-0.5909931299837697,5.0,1.0
1069,5,109,1481,1,0.8,0.0,2.0,1.4626509510409091,-0.7279027353854154,5.0,1.0
1070,5,110,2890,-1,0.35,0.0,2.0,0.2304645024261027,-0.7279027353854154,3.0,1.0
1071,5,111,1645,-1,0.05,1.1,2.0,-0.5909931299837683,2.2841085834507884,1.0,5.0
1072,5,112,1103,1,0.2,0.05,2.0,-0.1802643137788327,-0.5909931299837697,2.0,1.0
1073,5,113,2478,1,0.0,0.0,2.0,-0.7279027353854134,-0.7279027353854154,1.0,1.0
1074,5,114,1333,-1,0.05,0.95,2.0,-0.5909931299837683,1.8733797672458514,1.0,5.0
1075,5,115,1416,1,0.05,0.0,2.0,-0.5909931299837683,-0.7279027353854154,1.0,1.0
1076,5,116,1183,-1,0.0,0.5,2.0,-0.7279027353854134,0.6411933186310409,1.0,4.0
1077,5,117,2441,-1,0.0,0.0,2.0,-0.7279027353854134,-0.7279027353854154,1.0,1.0
1078,5,118,1500,-1,0.0,0.2,2.0,-0.7279027353854134,-0.18026431377883284,1.0,2.0
1079,5,119,1450,-1,0.0,0.8,2.0,-0.7279027353854134,1.4626509510409147,1.0,5.0
1080,5,120,2420,-1,0.0,0.0,1.0,-0.7279027353854134,-0.7279027353854154,1.0,1.0
1081,5,121,2161,-1,0.0,0.0,1.0,-0.7279027353854134,-0.7279027353854154,1.0,1.0
1082,5,122,1342,-1,0.8,0.0,1.0,1.4626509510409091,-0.7279027353854154,5.0,1.0
1083,5,123,1253,1,0.0,0.0,1.0,-0.7279027353854134,-0.7279027353854154,1.0,1.0
1084,5,124,1262,-1,0.8,0.0,1.0,1.4626509510409091,-0.7279027353854154,5.0,1.0
1085,5,125,1895,1,0.0,0.0,1.0,-0.7279027353854134,-0.7279027353854154,1.0,1.0
1086,5,126,2956,-1,0.65,0.5,1.0,1.0519221348359737,0.6411933186310409,5.0,4.0
1087,5,127,1518,-1,0.8,0.0,1.0,1.4626509510409091,-0.7279027353854154,5.0,1.0
1088,5,128,1020,1,0.0,1.1,1.0,-0.7279027353854134,2.2841085834507884,1.0,5.0
1089,5,129,1407,-1,0.0,0.0,1.0,-0.7279027353854134,-0.7279027353854154,1.0,1.0
1090,5,130,2155,-1,0.5,0.0,1.0,0.6411933186310382,-0.7279027353854154,4.0,1.0
1091,5,131,1575,1,0.0,0.65,1.0,-0.7279027353854134,1.0519221348359777,1.0,5.0
1092,5,132,1830,-1,0.0,0.0,1.0,-0.7279027353854134,-0.7279027353854154,1.0,1.0
1093,5,133,1061,-1,0.0,0.0,1.0,-0.7279027353854134,-0.7279027353854154,1.0,1.0
1094,5,134,1095,1,0.5,0.8,1.0,0.6411933186310382,1.4626509510409147,4.0,5.0
1095,5,135,1536,1,0.0,0.0,1.0,-0.7279027353854134,-0.7279027353854154,1.0,1.0
1096,5,136,1046,-1,1.1,0.0,1.0,2.2841085834507804,-0.7279027353854154,5.0,1.0
1097,5,137,1951,-1,0.8,0.35,1.0,1.4626509510409091,0.23046450242610392,5.0,3.0
1098,5,138,1306,-1,0.0,0.0,1.0,-0.7279027353854134,-0.7279027353854154,1.0,1.0
1099,5,139,1983,1,0.0,0.2,1.0,-0.7279027353854134,-0.18026431377883284,1.0,2.0
1100,5,140,1847,-1,0.0,0.2,1.0,-0.7279027353854134,-0.18026431377883284,1.0,2.0
1101,5,141,1761,1,0.05,0.95,1.0,-0.5909931299837683,1.8733797672458514,1.0,5.0
1102,5,142,2454,-1,0.05,0.0,1.0,-0.5909931299837683,-0.7279027353854154,1.0,1.0
1103,5,143,2720,1,0.35,0.0,1.0,0.2304645024261027,-0.7279027353854154,3.0,1.0
1104,5,144,1076,-1,0.2,0.05,1.0,-0.1802643137788327,-0.5909931299837697,2.0,1.0
1105,5,145,1871,1,0.0,0.8,1.0,-0.7279027353854134,1.4626509510409147,1.0,5.0
1106,5,146,926,-1,0.65,0.05,1.0,1.0519221348359737,-0.5909931299837697,5.0,1.0
1107,5,147,1366,-1,0.05,0.0,1.0,-0.5909931299837683,-0.7279027353854154,1.0,1.0
1108,5,148,1282,1,0.0,1.1,1.0,-0.7279027353854134,2.2841085834507884,1.0,5.0
1109,5,149,1485,1,0.0,0.05,1.0,-0.7279027353854134,-0.5909931299837697,1.0,1.0
1110,5,150,2086,-1,0.8,0.05,1.0,1.4626509510409091,-0.5909931299837697,5.0,1.0
1111,5,151,1351,-1,0.65,0.0,1.0,1.0519221348359737,-0.7279027353854154,5.0,1.0
1112,5,152,1516,-1,0.0,0.5,1.0,-0.7279027353854134,0.6411933186310409,1.0,4.0
1113,5,153,1085,1,0.0,0.0,1.0,-0.7279027353854134,-0.7279027353854154,1.0,1.0
1114,5,154,1580,-1,0.35,0.0,1.0,0.2304645024261027,-0.7279027353854154,3.0,1.0
1115,5,155,1235,-1,0.8,0.0,1.0,1.4626509510409091,-0.7279027353854154,5.0,1.0
1116,5,156,1850,1,0.8,0.8,1.0,1.4626509510409091,1.4626509510409147,5.0,5.0
1117,5,157,1398,1,0.05,1.1,1.0,-0.5909931299837683,2.2841085834507884,1.0,5.0
1118,5,158,1486,1,0.0,0.5,1.0,-0.7279027353854134,0.6411933186310409,1.0,4.0
1119,5,159,4333,-1,0.0,0.0,1.0,-0.7279027353854134,-0.7279027353854154,1.0,1.0
1120,5,160,1562,-1,0.0,0.6,2.0,-0.7279027353854134,0.9150125294343321,1.0,5.0
1121,5,161,1767,-1,0.0,0.0,2.0,-0.7279027353854134,-0.7279027353854154,1.0,1.0
1122,5,162,888,-1,0.05,0.8,2.0,-0.5909931299837683,1.4626509510409147,1.0,5.0
1123,5,163,1439,1,0.2,0.05,2.0,-0.1802643137788327,-0.5909931299837697,2.0,1.0
1124,5,164,1676,1,0.65,0.0,2.0,1.0519221348359737,-0.7279027353854154,5.0,1.0
1125,5,165,1546,-1,0.35,0.6,2.0,0.2304645024261027,0.9150125294343321,3.0,5.0
1126,5,166,1249,1,1.1,0.0,2.0,2.2841085834507804,-0.7279027353854154,5.0,1.0
1127,5,167,1145,1,0.95,0.0,2.0,1.8733797672458445,-0.7279027353854154,5.0,1.0
1128,5,168,1512,1,0.0,0.35,2.0,-0.7279027353854134,0.23046450242610392,1.0,3.0
1129,5,169,1367,-1,0.0,0.8,2.0,-0.7279027353854134,1.4626509510409147,1.0,5.0
1130,5,170,1522,1,0.95,0.05,2.0,1.8733797672458445,-0.5909931299837697,5.0,1.0
1131,5,171,1074,1,0.0,0.0,2.0,-0.7279027353854134,-0.7279027353854154,1.0,1.0
1132,5,172,934,1,1.1,0.5,2.0,2.2841085834507804,0.6411933186310409,5.0,4.0
1133,5,173,1556,-1,0.0,0.5,2.0,-0.7279027353854134,0.6411933186310409,1.0,4.0
1134,5,174,1114,-1,0.0,0.8,2.0,-0.7279027353854134,1.4626509510409147,1.0,5.0
1135,5,175,1621,-1,0.0,0.35,2.0,-0.7279027353854134,0.23046450242610392,1.0,3.0
1136,5,176,2184,-1,0.0,0.0,2.0,-0.7279027353854134,-0.7279027353854154,1.0,1.0
1137,5,177,1325,1,0.5,0.0,2.0,0.6411933186310382,-0.7279027353854154,4.0,1.0
1138,5,178,1246,-1,0.0,0.0,2.0,-0.7279027353854134,-0.7279027353854154,1.0,1.0
1139,5,179,1597,-1,0.0,0.05,2.0,-0.7279027353854134,-0.5909931299837697,1.0,1.0
1140,5,180,2734,1,0.8,0.8,2.0,1.4626509510409091,1.4626509510409147,5.0,5.0
1141,5,181,1054,-1,0.0,0.65,2.0,-0.7279027353854134,1.0519221348359777,1.0,5.0
1142,5,182,4260,1,0.2,0.0,2.0,-0.1802643137788327,-0.7279027353854154,2.0,1.0
1143,5,183,1232,-1,0.0,0.0,2.0,-0.7279027353854134,-0.7279027353854154,1.0,1.0
1144,5,184,1732,-1,0.0,0.0,2.0,-0.7279027353854134,-0.7279027353854154,1.0,1.0
1145,5,185,843,-1,0.0,1.1,2.0,-0.7279027353854134,2.2841085834507884,1.0,5.0
1146,5,186,1250,1,0.0,0.05,2.0,-0.7279027353854134,-0.5909931299837697,1.0,1.0
1147,5,187,1576,1,0.05,0.0,2.0,-0.5909931299837683,-0.7279027353854154,1.0,1.0
1148,5,188,1219,-1,0.65,0.8,2.0,1.0519221348359737,1.4626509510409147,5.0,5.0
1149,5,189,1461,-1,0.0,0.0,2.0,-0.7279027353854134,-0.7279027353854154,1.0,1.0
1150,5,190,2581,-1,0.0,0.05,2.0,-0.7279027353854134,-0.5909931299837697,1.0,1.0
1151,5,191,985,1,0.95,0.0,2.0,1.8733797672458445,-0.7279027353854154,5.0,1.0
1152,5,192,961,1,0.8,0.0,2.0,1.4626509510409091,-0.7279027353854154,5.0,1.0
1153,5,193,978,1,0.8,0.0,2.0,1.4626509510409091,-0.7279027353854154,5.0,1.0
1154,5,194,4419,-1,0.0,0.0,2.0,-0.7279027353854134,-0.7279027353854154,1.0,1.0
1155,5,195,1302,-1,0.0,0.0,2.0,-0.7279027353854134,-0.7279027353854154,1.0,1.0
1156,5,196,1153,1,0.0,0.0,2.0,-0.7279027353854134,-0.7279027353854154,1.0,1.0
1157,5,197,1033,-1,0.05,0.65,2.0,-0.5909931299837683,1.0519221348359777,1.0,5.0
1158,5,198,957,1,0.95,0.5,2.0,1.8733797672458445,0.6411933186310409,5.0,4.0
1159,5,199,1271,1,0.0,0.0,2.0,-0.7279027353854134,-0.7279027353854154,1.0,1.0
1160,5,200,2015,-1,0.5,0.0,1.0,0.6411933186310382,-0.7279027353854154,4.0,1.0
1161,5,201,1236,-1,0.95,0.0,1.0,1.8733797672458445,-0.7279027353854154,5.0,1.0
1162,5,202,1346,1,0.0,0.0,1.0,-0.7279027353854134,-0.7279027353854154,1.0,1.0
1163,5,203,1235,1,0.65,0.8,1.0,1.0519221348359737,1.4626509510409147,5.0,5.0
1164,5,204,1382,1,0.0,0.0,1.0,-0.7279027353854134,-0.7279027353854154,1.0,1.0
1165,5,205,1491,1,0.0,0.0,1.0,-0.7279027353854134,-0.7279027353854154,1.0,1.0
1166,5,206,2413,-1,0.65,0.0,1.0,1.0519221348359737,-0.7279027353854154,5.0,1.0
1167,5,207,1509,-1,0.8,0.0,1.0,1.4626509510409091,-0.7279027353854154,5.0,1.0
1168,5,208,1114,1,0.0,0.5,1.0,-0.7279027353854134,0.6411933186310409,1.0,4.0
1169,5,209,1071,1,0.0,0.6,1.0,-0.7279027353854134,0.9150125294343321,1.0,5.0
1170,5,210,1696,-1,0.0,0.0,1.0,-0.7279027353854134,-0.7279027353854154,1.0,1.0
1171,5,211,2318,1,0.2,0.05,1.0,-0.1802643137788327,-0.5909931299837697,2.0,1.0
1172,5,212,1504,-1,1.1,0.0,1.0,2.2841085834507804,-0.7279027353854154,5.0,1.0
1173,5,213,1920,-1,1.1,0.5,1.0,2.2841085834507804,0.6411933186310409,5.0,4.0
1174,5,214,1381,-1,0.95,0.0,1.0,1.8733797672458445,-0.7279027353854154,5.0,1.0
1175,5,215,4618,1,0.0,0.05,1.0,-0.7279027353854134,-0.5909931299837697,1.0,1.0
1176,5,216,1067,1,0.35,0.6,1.0,0.2304645024261027,0.9150125294343321,3.0,5.0
1177,5,217,1600,-1,0.0,0.0,1.0,-0.7279027353854134,-0.7279027353854154,1.0,1.0
1178,5,218,903,1,0.0,0.0,1.0,-0.7279027353854134,-0.7279027353854154,1.0,1.0
1179,5,219,1515,1,0.0,0.05,1.0,-0.7279027353854134,-0.5909931299837697,1.0,1.0
1180,5,220,1737,-1,0.2,0.0,1.0,-0.1802643137788327,-0.7279027353854154,2.0,1.0
1181,5,221,943,1,0.0,1.1,1.0,-0.7279027353854134,2.2841085834507884,1.0,5.0
1182,5,222,1317,1,0.05,0.65,1.0,-0.5909931299837683,1.0519221348359777,1.0,5.0
1183,5,223,1197,1,0.0,0.8,1.0,-0.7279027353854134,1.4626509510409147,1.0,5.0
1184,5,224,2430,1,0.0,0.0,1.0,-0.7279027353854134,-0.7279027353854154,1.0,1.0
1185,5,225,1257,-1,0.8,0.0,1.0,1.4626509510409091,-0.7279027353854154,5.0,1.0
1186,5,226,2005,1,0.0,0.35,1.0,-0.7279027353854134,0.23046450242610392,1.0,3.0
1187,5,227,1129,1,0.0,0.8,1.0,-0.7279027353854134,1.4626509510409147,1.0,5.0
1188,5,228,1162,1,0.0,0.65,1.0,-0.7279027353854134,1.0519221348359777,1.0,5.0
1189,5,229,1801,-1,0.0,0.0,1.0,-0.7279027353854134,-0.7279027353854154,1.0,1.0
1190,5,230,2430,1,0.0,0.0,1.0,-0.7279027353854134,-0.7279027353854154,1.0,1.0
1191,5,231,1379,1,0.05,0.8,1.0,-0.5909931299837683,1.4626509510409147,1.0,5.0
1192,5,232,1529,-1,0.95,0.5,1.0,1.8733797672458445,0.6411933186310409,5.0,4.0
1193,5,233,2327,-1,0.0,0.0,1.0,-0.7279027353854134,-0.7279027353854154,1.0,1.0
1194,5,234,1531,-1,0.0,0.35,1.0,-0.7279027353854134,0.23046450242610392,1.0,3.0
1195,5,235,1360,-1,0.0,0.05,1.0,-0.7279027353854134,-0.5909931299837697,1.0,1.0
1196,5,236,1619,-1,0.05,0.0,1.0,-0.5909931299837683,-0.7279027353854154,1.0,1.0
1197,5,237,1415,-1,0.0,0.0,1.0,-0.7279027353854134,-0.7279027353854154,1.0,1.0
1198,5,238,1552,-1,0.8,0.8,1.0,1.4626509510409091,1.4626509510409147,5.0,5.0
1199,5,239,1627,-1,0.95,0.05,1.0,1.8733797672458445,-0.5909931299837697,5.0,1.0
1680,8,0,4573,-1,0.5,0.65,2.0,-0.7044823098536466,-0.218632440989061,0.0,2.0
1681,8,1,3339,-1,0.5,0.8,2.0,-0.7044823098536466,0.2672174278755223,0.0,3.0
1682,8,2,5410,1,1.4,0.0,2.0,2.210616903333851,-2.323981872735588,5.0,0.0
1683,8,3,10236,1,0.65,0.8,2.0,-0.21863244098906345,0.2672174278755223,2.0,3.0
1684,8,4,5784,-1,0.5,0.65,2.0,-0.7044823098536466,-0.218632440989061,0.0,2.0
1685,8,5,3272,1,1.1,0.5,2.0,1.2389171656046858,-0.7044823098536442,5.0,0.0
1686,8,6,2593,1,0.8,0.65,2.0,0.2672174278755196,-0.218632440989061,3.0,2.0
1687,8,7,4628,1,1.1,0.65,2.0,1.2389171656046858,-0.218632440989061,5.0,2.0
1688,8,8,2522,1,0.65,0.0,2.0,-0.21863244098906345,-2.323981872735588,2.0,0.0
1689,8,9,9605,-1,0.65,0.8,2.0,-0.21863244098906345,0.2672174278755223,2.0,3.0
1690,8,10,1583,1,0.2,0.95,2.0,-1.6761820475828124,0.7530672967401052,0.0,5.0
1691,8,11,5220,-1,0.8,1.1,2.0,0.2672174278755196,1.2389171656046887,3.0,5.0
1692,8,12,7521,1,0.65,0.65,2.0,-0.21863244098906345,-0.218632440989061,2.0,2.0
1693,8,13,2083,-1,0.0,0.5,2.0,-2.32398187273559,-0.7044823098536442,0.0,0.0
1694,8,14,3647,-1,0.95,0.8,2.0,0.7530672967401023,0.2672174278755223,5.0,3.0
1695,8,15,2790,-1,0.0,0.5,2.0,-2.32398187273559,-0.7044823098536442,0.0,0.0
1696,8,16,4538,-1,0.95,1.1,2.0,0.7530672967401023,1.2389171656046887,5.0,5.0
1697,8,17,2889,-1,0.35,0.95,2.0,-1.1903321787182297,0.7530672967401052,0.0,5.0
1698,8,18,4539,1,0.2,0.8,2.0,-1.6761820475828124,0.2672174278755223,0.0,3.0
1699,8,19,2411,1,0.8,0.8,2.0,0.2672174278755196,0.2672174278755223,3.0,3.0
1700,8,20,1791,-1,0.35,0.65,2.0,-1.1903321787182297,-0.218632440989061,0.0,2.0
1701,8,21,11451,-1,0.95,0.65,2.0,0.7530672967401023,-0.218632440989061,5.0,2.0
1702,8,22,12467,-1,0.65,0.95,2.0,-0.21863244098906345,0.7530672967401052,2.0,5.0
1703,8,23,3323,-1,0.5,0.5,2.0,-0.7044823098536466,-0.7044823098536442,0.0,0.0
1704,8,24,3139,-1,0.95,0.5,2.0,0.7530672967401023,-0.7044823098536442,5.0,0.0
1705,8,25,6585,-1,0.8,1.1,2.0,0.2672174278755196,1.2389171656046887,3.0,5.0
1706,8,26,2175,1,0.95,0.35,2.0,0.7530672967401023,-1.1903321787182275,5.0,0.0
1707,8,27,9514,1,0.65,1.1,2.0,-0.21863244098906345,1.2389171656046887,2.0,5.0
1708,8,28,2883,1,1.25,1.1,2.0,1.7247670344692685,1.2389171656046887,5.0,5.0
1709,8,29,6008,1,1.1,0.8,2.0,1.2389171656046858,0.2672174278755223,5.0,3.0
1710,8,30,2064,1,1.1,0.2,2.0,1.2389171656046858,-1.6761820475828109,5.0,0.0
1711,8,31,2596,-1,0.95,0.65,2.0,0.7530672967401023,-0.218632440989061,5.0,2.0
1712,8,32,7987,-1,0.95,0.95,2.0,0.7530672967401023,0.7530672967401052,5.0,5.0
1713,8,33,3846,-1,0.8,0.95,2.0,0.2672174278755196,0.7530672967401052,3.0,5.0
1714,8,34,4457,-1,0.35,0.95,2.0,-1.1903321787182297,0.7530672967401052,0.0,5.0
1715,8,35,2606,-1,0.5,0.8,2.0,-0.7044823098536466,0.2672174278755223,0.0,3.0
1716,8,36,2338,-1,0.5,0.65,2.0,-0.7044823098536466,-0.218632440989061,0.0,2.0
1717,8,37,9804,-1,0.65,0.8,2.0,-0.21863244098906345,0.2672174278755223,2.0,3.0
1718,8,38,4005,1,1.4,0.95,2.0,2.210616903333851,0.7530672967401052,5.0,5.0
1719,8,39,4239,1,0.8,0.5,2.0,0.2672174278755196,-0.7044823098536442,3.0,0.0
1720,8,40,2028,-1,1.4,0.95,1.0,2.210616903333851,0.7530672967401052,5.0,5.0
1721,8,41,2197,1,0.5,0.65,1.0,-0.7044823098536466,-0.218632440989061,0.0,2.0
1722,8,42,1864,1,0.5,0.8,1.0,-0.7044823098536466,0.2672174278755223,0.0,3.0
1723,8,43,2066,1,0.35,0.65,1.0,-1.1903321787182297,-0.218632440989061,0.0,2.0
1724,8,44,1702,1,0.35,0.95,1.0,-1.1903321787182297,0.7530672967401052,0.0,5.0
1725,8,45,2343,1,0.2,0.95,1.0,-1.6761820475828124,0.7530672967401052,0.0,5.0
1726,8,46,3469,-1,1.1,0.8,1.0,1.2389171656046858,0.2672174278755223,5.0,3.0
1727,8,47,4105,-1,0.8,0.5,1.0,0.2672174278755196,-0.7044823098536442,3.0,0.0
1728,8,48,2482,1,0.0,0.5,1.0,-2.32398187273559,-0.7044823098536442,0.0,0.0
1729,8,49,3178,1,0.35,0.95,1.0,-1.1903321787182297,0.7530672967401052,0.0,5.0
1730,8,50,1763,-1,1.1,0.65,1.0,1.2389171656046858,-0.218632440989061,5.0,2.0
1731,8,51,2708,1,0.95,0.95,1.0,0.7530672967401023,0.7530672967401052,5.0,5.0
1732,8,52,3466,-1,1.4,0.0,1.0,2.210616903333851,-2.323981872735588,5.0,0.0
1733,8,53,1868,-1,0.65,0.65,1.0,-0.21863244098906345,-0.218632440989061,2.0,2.0
1734,8,54,2141,-1,0.65,0.0,1.0,-0.21863244098906345,-2.323981872735588,2.0,0.0
1735,8,55,1801,1,0.5,0.65,1.0,-0.7044823098536466,-0.218632440989061,0.0,2.0
1736,8,56,4713,1,0.95,0.65,1.0,0.7530672967401023,-0.218632440989061,5.0,2.0
1737,8,57,1717,-1,1.1,0.2,1.0,1.2389171656046858,-1.6761820475828109,5.0,0.0
1738,8,58,1870,-1,0.65,0.8,1.0,-0.21863244098906345,0.2672174278755223,2.0,3.0
1739,8,59,1629,-1,1.1,0.5,1.0,1.2389171656046858,-0.7044823098536442,5.0,0.0
1740,8,60,2029,1,0.5,0.8,1.0,-0.7044823098536466,0.2672174278755223,0.0,3.0
1741,8,61,3458,1,0.95,1.1,1.0,0.7530672967401023,1.2389171656046887,5.0,5.0
1742,8,62,2113,1,0.95,0.8,1.0,0.7530672967401023,0.2672174278755223,5.0,3.0
1743,8,63,2422,1,0.65,0.8,1.0,-0.21863244098906345,0.2672174278755223,2.0,3.0
1744,8,64,2205,-1,0.65,1.1,1.0,-0.21863244098906345,1.2389171656046887,2.0,5.0
1745,8,65,2222,-1,0.8,0.65,1.0,0.2672174278755196,-0.218632440989061,3.0,2.0
1746,8,66,3793,1,0.5,0.65,1.0,-0.7044823098536466,-0.218632440989061,0.0,2.0
1747,8,67,2187,1,0.8,1.1,1.0,0.2672174278755196,1.2389171656046887,3.0,5.0
1748,8,68,2330,-1,0.95,0.35,1.0,0.7530672967401023,-1.1903321787182275,5.0,0.0
1749,8,69,3852,1,0.95,0.65,1.0,0.7530672967401023,-0.218632440989061,5.0,2.0
1750,8,70,3695,-1,0.65,0.95,1.0,-0.21863244098906345,0.7530672967401052,2.0,5.0
1751,8,71,3260,-1,0.8,0.8,1.0,0.2672174278755196,0.2672174278755223,3.0,3.0
1752,8,72,24903,-1,0.2,0.8,1.0,-1.6761820475828124,0.2672174278755223,0.0,3.0
1753,8,73,4399,1,0.65,0.8,1.0,-0.21863244098906345,0.2672174278755223,2.0,3.0
1754,8,74,3612,1,0.0,0.5,1.0,-2.32398187273559,-0.7044823098536442,0.0,0.0
1755,8,75,2359,1,0.8,0.95,1.0,0.2672174278755196,0.7530672967401052,3.0,5.0
1756,8,76,4328,1,0.8,1.1,1.0,0.2672174278755196,1.2389171656046887,3.0,5.0
1757,8,77,1866,1,0.5,0.5,1.0,-0.7044823098536466,-0.7044823098536442,0.0,0.0
1758,8,78,2742,-1,1.25,1.1,1.0,1.7247670344692685,1.2389171656046887,5.0,5.0
1759,8,79,2290,1,0.95,0.5,1.0,0.7530672967401023,-0.7044823098536442,5.0,0.0
1760,8,80,2777,1,0.5,0.0,2.0,-0.7044823098536466,-2.323981872735588,0.0,0.0
1761,8,81,1763,-1,0.0,1.1,2.0,-2.32398187273559,1.2389171656046887,0.0,5.0
1762,8,82,2346,-1,0.65,0.8,2.0,-0.21863244098906345,0.2672174278755223,2.0,3.0
1763,8,83,1407,1,0.65,0.5,2.0,-0.21863244098906345,-0.7044823098536442,2.0,0.0
1764,8,84,1645,1,1.25,0.8,2.0,1.7247670344692685,0.2672174278755223,5.0,3.0
1765,8,85,2029,1,0.65,0.5,2.0,-0.21863244098906345,-0.7044823098536442,2.0,0.0
1766,8,86,1395,1,0.5,0.0,2.0,-0.7044823098536466,-2.323981872735588,0.0,0.0
1767,8,87,1998,-1,0.65,1.1,2.0,-0.21863244098906345,1.2389171656046887,2.0,5.0
1768,8,88,2131,1,0.8,0.65,2.0,0.2672174278755196,-0.218632440989061,3.0,2.0
1769,8,89,2170,-1,0.35,0.65,2.0,-1.1903321787182297,-0.218632440989061,0.0,2.0
1770,8,90,2591,-1,0.95,0.95,2.0,0.7530672967401023,0.7530672967401052,5.0,5.0
1771,8,91,2569,-1,0.2,1.1,2.0,-1.6761820475828124,1.2389171656046887,0.0,5.0
1772,8,92,2201,1,0.8,0.95,2.0,0.2672174278755196,0.7530672967401052,3.0,5.0
1773,8,93,3203,-1,0.2,0.35,2.0,-1.6761820475828124,-1.1903321787182275,0.0,0.0
1774,8,94,1679,1,0.8,0.95,2.0,0.2672174278755196,0.7530672967401052,3.0,5.0
1775,8,95,11481,-1,0.8,0.65,2.0,0.2672174278755196,-0.218632440989061,3.0,2.0
1776,8,96,2299,-1,0.95,0.65,2.0,0.7530672967401023,-0.218632440989061,5.0,2.0
