parcode,trial,rt,choice,item_left,item_right,valid
0,0,3327,1,0.95,2,
0,1,3424,1,2.3,1.7,
0,2,3691,1,1.7,1.25,
0,3,8144,-1,1.55,2.3,
0,4,6559,-1,2,2,
0,5,5595,-1,0.65,1.25,
0,6,2470,1,1.55,1.1,
0,7,6091,1,0.95,0.65,
0,8,4669,1,1.55,1.7,
0,9,4001,1,2,1.1,
0,10,3301,-1,1.1,1.1,
0,11,2867,-1,1.4,2,
0,12,3117,1,1.85,1.1,
0,13,10424,1,1.7,2,
0,14,2754,-1,1.25,1.55,
0,15,5836,1,2,1.7,
0,16,3931,1,1.85,1.7,
0,17,3602,1,1.55,0.8,
0,18,5674,-1,1.7,1.4,
0,19,2567,1,1.7,1.1,
0,20,2097,-1,1.1,1.55,
0,21,3641,-1,0.95,0.8,
0,22,4550,1,1.7,1.55,
0,23,2973,1,1.7,1.4,
0,24,2824,-1,1.25,1.7,
0,25,3643,-1,2,2.3,
0,26,2188,1,1.85,0.65,
0,27,3321,1,1.85,1.1,
0,28,6784,-1,1.85,2,
0,29,2314,-1,1.1,2.3,
0,30,2952,-1,1.1,2,
0,31,8388,-1,1.25,1.4,
0,32,5341,1,1.25,1.85,
0,33,2183,1,1.1,0.95,
0,34,3207,-1,0.95,1.85,
0,35,3224,1,1.1,1.55,
0,36,3476,1,1.7,1.85,
0,37,2295,-1,0.65,1.7,
0,38,3513,-1,1.55,2.3,
0,39,4458,1,1.1,0.95,
0,40,2009,-1,1.1,0.95,
0,41,3371,-1,2,1.7,
0,42,1700,1,1.1,2.3,
0,43,7466,1,1.25,1.4,
0,44,1889,1,2,2.3,
0,45,2227,1,1.7,1.85,
0,46,4259,-1,1.85,0.65,
0,47,3505,-1,1.55,0.8,
0,48,2548,-1,1.55,1.1,
0,49,3226,1,1.1,2,
0,50,4604,-1,1.85,1.1,
0,51,6333,-1,0.95,2,
0,52,5716,-1,0.95,0.8,
0,53,3562,-1,2,1.1,
0,54,2447,-1,1.85,1.1,
0,55,2120,1,1.25,1.85,
0,56,6932,1,2,2,
0,57,4274,1,1.25,1.7,
0,58,6854,-1,1.7,1.4,
0,59,6698,-1,1.1,1.1,
0,60,2913,-1,1.1,0.95,
0,61,4513,-1,1.7,1.55,
0,62,2110,1,1.85,2,
0,63,3385,-1,1.7,1.4,
0,64,2456,1,1.4,2,
0,65,2136,-1,1.85,1.7,
0,66,7010,1,1.1,1.55,
0,67,4784,-1,0.95,0.65,
0,68,2697,1,1.1,1.55,
0,69,4654,1,1.25,1.55,
0,70,1916,1,1.55,2.3,
0,71,2033,-1,1.7,1.25,
0,72,1441,1,0.95,1.85,
0,73,3579,1,0.65,1.25,
0,74,7377,1,1.7,2,
0,75,2921,-1,2.3,1.7,
0,76,6398,-1,1.55,2.3,
0,77,2919,1,0.65,1.7,
0,78,4737,-1,1.55,1.7,
0,79,3459,-1,1.7,1.1,
0,80,2348,1,1.55,1.1,
0,81,2809,-1,1.4,1.7,
0,82,1992,-1,1.1,1.7,
0,83,1534,1,1.85,0.95,
0,84,3023,-1,0.95,2.3,
0,85,3452,-1,2,2,
0,86,3961,1,2,1.55,
0,87,2636,1,2,1.1,
0,88,1898,1,2,1.1,
0,89,1725,1,2.3,1.1,
0,90,4336,1,2.3,2,
0,91,2037,-1,0.95,1.1,
0,92,2479,-1,0.35,1.85,
0,93,3389,1,2.3,1.55,
0,94,2339,-1,1.7,2,
0,95,3609,-1,1.85,1.85,
0,96,7371,1,2.3,1.55,
0,97,2520,-1,1.55,2,
0,98,1761,1,2,1.4,
0,99,2593,1,1.85,1.7,
0,100,5772,1,1.55,1.1,
0,101,1945,-1,1.1,1.85,
0,102,1621,1,1.1,0.35,
0,103,2952,1,1.55,1.4,
0,104,2725,-1,1.25,2,
0,105,2591,-1,1.1,1.55,
0,106,3523,1,1.4,1.1,
0,107,7082,-1,1.25,1.1,
0,108,4066,1,1.55,1.25,
0,109,2602,-1,1.25,2,
0,110,3239,1,1.4,1.25,
0,111,1943,-1,1.55,1.55,
0,112,3627,-1,1.85,2,
0,113,6245,-1,1.7,1.55,
0,114,4574,1,1.85,1.55,
0,115,4327,1,1.7,0.65,
0,116,6247,-1,1.1,2,
0,117,2353,-1,1.1,1.25,
0,118,4758,-1,0.95,1.55,
0,119,2715,-1,1.1,1.85,
0,120,3454,1,1.85,1.85,
0,121,2478,1,1.7,1.55,
0,122,1728,1,1.1,1.85,
0,123,2014,-1,1.85,1.7,
0,124,519,1,0.95,1.1,
0,125,5492,1,1.1,1.25,
0,126,3216,1,1.1,1.7,
0,127,2185,-1,1.4,1.1,
0,128,1467,-1,2.3,2,
0,129,1707,-1,1.7,0.65,
0,130,1472,1,1.1,1.55,
0,131,2425,-1,2,1.1,
0,132,5621,1,2.3,1.55,
0,133,3216,1,0.95,1.55,
0,134,3167,1,0.95,2.3,
0,135,1939,-1,1.1,0.35,
0,136,2066,-1,1.55,1.4,
0,137,1561,1,1.25,2,
0,138,2037,-1,1.85,1.55,
0,139,3620,1,1.85,2,
0,140,1235,1,0.35,1.85,
0,141,3726,1,1.4,1.7,
0,142,1764,1,1.25,1.1,
0,143,4016,-1,2,1.4,
0,144,2365,1,1.1,2,
0,145,1583,1,1.55,1.55,
0,146,5406,-1,1.55,1.25,
0,147,2418,1,1.25,2,
0,148,5198,-1,1.4,1.25,
0,149,4101,1,1.1,1.85,
0,150,3167,1,1.55,2,
0,151,1675,-1,1.85,0.95,
0,152,1655,1,1.7,2,
0,153,1870,-1,1.55,1.1,
0,154,2637,-1,1.55,1.1,
0,155,3613,1,2,2,
0,156,1854,-1,2.3,1.55,
0,157,1999,-1,2,1.55,
0,158,1979,-1,2,1.1,
0,159,1987,-1,2.3,1.1,
0,160,1573,-1,0.35,1.1,
0,161,1712,1,1.85,1.85,
0,162,2040,-1,1.55,1.7,
0,163,2372,1,2,1.85,
0,164,4185,-1,2,1.7,
0,165,3429,1,1.1,1.25,
0,166,2044,-1,1.4,1.55,
0,167,2542,1,2,0.95,
0,168,1576,1,2,1.25,
0,169,2497,-1,1.1,1.1,
0,170,2511,1,1.85,1.1,
0,171,1564,1,1.55,1.55,
0,172,1616,1,1.55,0.95,
0,173,2987,1,2,1.7,
0,174,3625,-1,1.7,2,
0,175,2226,-1,1.1,2,
0,176,2179,-1,0.8,1.55,
0,177,1847,-1,0.65,1.85,
0,178,1569,1,1.25,0.65,
0,179,2371,-1,1.1,2,
0,180,2482,-1,1.1,1.85,
0,181,2747,-1,0.95,1.1,
0,182,2918,1,2,1.55,
0,183,3706,1,2,1.85,
0,184,3625,1,2,1.1,
0,185,3938,-1,0.8,0.95,
0,186,2329,-1,0.65,0.95,
0,187,2028,-1,1.25,1.7,
0,188,1665,1,1.85,0.35,
0,189,1580,1,2.3,0.95,
0,190,4189,-1,1.7,2.3,
0,191,2626,-1,1.7,1.85,
0,192,3783,1,1.7,1.25,
0,193,2920,-1,1.55,2,
0,194,4843,-1,1.25,1.1,
0,195,5275,-1,1.4,1.7,
0,196,5630,-1,1.1,1.4,
0,197,1871,1,2,1.25,
0,198,4173,1,1.85,1.25,
0,199,2828,-1,1.55,1.85,
0,200,2166,-1,1.85,1.1,
0,201,2263,-1,2,1.55,
0,202,1491,1,0.8,1.55,
0,203,1697,-1,1.1,1.25,
0,204,2250,1,1.55,1.7,
0,205,2017,-1,1.7,1.25,
0,206,2098,1,1.7,1.85,
0,207,1744,-1,2,1.25,
0,208,2002,-1,1.85,1.85,
0,209,2099,-1,2,1.1,
0,210,4340,-1,1.4,1.7,
0,211,2085,1,1.55,1.85,
0,212,2755,1,1.55,2,
0,213,2265,-1,2,1.85,
0,214,1866,1,1.25,1.7,
0,215,2166,-1,1.85,0.35,
0,216,4828,1,1.25,1.1,
0,217,2376,-1,2,0.95,
0,218,2106,-1,2,1.85,
0,219,2328,-1,1.85,1.25,
0,220,4574,-1,2,1.7,
0,221,1708,1,1.1,1.4,
0,222,1739,1,1.1,1.85,
0,223,1466,1,0.35,1.1,
0,224,4432,-1,1.7,2.3,
0,225,1759,1,1.1,2,
0,226,1533,1,1.1,2,
0,227,1556,-1,1.25,0.65,
0,228,1545,-1,1.55,1.55,
0,229,1291,1,1.7,2,
0,230,1544,1,1.4,1.55,
0,231,4190,1,0.65,0.95,
0,232,1712,1,0.65,1.85,
0,233,2958,1,1.55,0.95,
0,234,1618,-1,2.3,0.95,
0,235,1474,-1,2,1.7,
0,236,1715,-1,2,1.25,
0,237,1819,1,1.1,1.1,
0,238,1454,1,0.95,1.1,
0,239,3480,-1,0.8,0.95,
1,0,4960,-1,0.2,0.5,
1,1,6438,-1,0.5,0.65,
1,2,5125,-1,0.2,0.65,
1,3,4268,-1,0.2,0.5,
1,4,4726,1,0.5,0.35,
1,5,5392,1,0.5,0.35,
1,6,3471,1,0.2,0,
1,7,4299,1,0.5,0.35,
1,8,4299,1,0.5,0.5,
1,9,4088,-1,0.5,0.65,
1,10,3147,-1,0,0.2,
1,11,3923,-1,0,0.2,
1,12,3889,-1,0.35,0.65,
1,13,4426,-1,0,0.2,
1,14,3035,1,0.65,0,
1,15,4915,1,0.2,0.2,
1,16,5395,1,0.5,0.35,
1,17,5623,1,0.35,0.65,
1,18,6208,1,0.35,0.2,
1,19,2323,1,0.2,0,
1,20,3491,-1,0.35,0.2,
1,21,5468,1,0.65,0.2,
1,22,6446,-1,0.5,0.65,
1,23,4541,1,0.35,0.35,
1,24,3991,-1,0,0.8,
1,25,4235,-1,0.5,0.65,
1,26,5489,1,0.65,0.65,
1,27,6380,-1,0.5,0.8,
1,28,3385,1,0.5,0.05,
1,29,4479,1,0.5,0.5,
1,30,3546,-1,0.2,0.65,
1,31,3266,1,0.8,0.2,
1,32,2267,1,0.2,0.05,
1,33,3808,-1,0.2,0.35,
1,34,4033,-1,0.65,0.35,
1,35,3093,-1,0.2,0.5,
1,36,3486,1,0.05,0.35,
1,37,5401,-1,0.05,0.5,
1,38,2833,-1,0.5,0.05,
1,39,1746,-1,0,0.5,
1,40,3113,1,0.5,0.8,
1,41,4273,1,0.05,0.5,
1,42,2400,-1,0.5,0.2,
1,43,2710,1,0.35,0.5,
1,44,3446,-1,0.5,0.2,
1,45,3993,-1,0.65,0.5,
1,46,2389,-1,0.65,0.05,
1,47,1404,-1,0.2,0,
1,48,3249,1,0.05,0.2,
1,49,1822,-1,0.35,0,
1,50,1994,-1,0.2,0,
1,51,2700,-1,0.65,0.2,
1,52,1886,-1,0.5,0,
1,53,3326,1,0.65,0.65,
1,54,3299,1,0.2,0.8,
1,55,2521,1,0,0.65,
1,56,2952,-1,0.05,0.5,
1,57,2415,-1,0.35,0.2,
1,58,3498,1,0.2,0.2,
1,59,2270,1,0,0.2,
1,60,2513,1,0.35,0.5,
1,61,2738,1,0.65,0.35,
1,62,3314,-1,0.35,0.5,
1,63,3086,1,0.05,0.2,
1,64,2393,1,0.5,0.5,
1,65,2560,1,0.05,0.2,
1,66,3130,-1,0.65,0.35,
1,67,4404,-1,0.65,0.5,
1,68,1777,-1,0.65,0.2,
1,69,2386,-1,0.5,0.35,
1,70,2762,-1,0.5,0.35,
1,71,1868,-1,0.65,0.2,
1,72,2631,-1,0.65,0.65,
1,73,3073,-1,0.65,0.5,
1,74,2059,1,0,0.35,
1,75,1611,1,0.2,0.65,
1,76,1721,-1,0.5,0,
1,77,2535,1,0.2,0,
1,78,2177,1,0.65,0.5,
1,79,2577,1,0,0.65,
1,80,2741,1,0.5,0.2,
1,81,2186,-1,0,0.65,
1,82,2803,-1,0.05,0.2,
1,83,1702,-1,0,0.35,
1,84,2152,-1,0.2,0.2,
1,85,1414,1,0.2,0.65,
1,86,1979,1,0.5,0.35,
1,87,1929,1,0.5,0.35,
1,88,1618,-1,0,0.65,
1,89,1534,-1,0.2,0,
1,90,1384,-1,0.35,0.5,
1,91,1343,1,0.2,0,
1,92,1683,1,0.2,0,
1,93,2062,1,0.65,0.05,
1,94,1539,1,0.65,0.5,
1,95,1601,1,0.65,0.65,
1,96,1858,-1,0.05,0.2,
1,97,1467,1,0.5,0.5,
1,98,1867,-1,0.65,0.65,
1,99,1450,-1,0.2,0.8,
1,100,2378,-1,0.65,0.5,
1,101,2138,1,0.35,0.5,
1,102,1414,-1,0,0.2,
1,103,1971,-1,0.65,0.35,
1,104,1983,1,0.65,0.2,
1,105,2258,1,0.65,0.2,
1,106,1400,1,0.5,0.2,
1,107,1192,1,0.5,0,
1,108,1291,1,0.65,0.2,
1,109,1035,1,0.35,0.2,
1,110,2068,1,0.05,0.5,
1,111,1164,1,0.5,0,
1,112,1482,-1,0.65,0.5,
1,113,1122,1,0.35,0,
1,114,1763,1,0.05,0.2,
1,115,2008,1,0.65,0.35,
1,116,1831,1,0.05,0.5,
1,117,2109,-1,0.35,0.5,
1,118,1709,1,0.65,0.5,
1,119,1236,-1,0.5,0.8,
1,120,2362,1,0.2,0.65,
1,121,1504,1,0,0.2,
1,122,1769,-1,0.5,0.05,
1,123,1998,1,0.35,0.05,
1,124,1194,1,0.35,0.5,
1,125,1135,1,0.05,0.65,
1,126,1716,-1,0.65,0.5,
1,127,1320,-1,0.5,0.65,
1,128,1241,1,0.2,0.5,
1,129,1278,1,0.8,0.5,
1,130,1160,-1,0.35,0.2,
1,131,1596,-1,0.2,0.35,
1,132,1158,-1,0.65,0.2,
1,133,1504,1,0.5,0.5,
1,134,1069,1,0,0.5,
1,135,1009,1,0.2,0.65,
1,136,1124,1,0.65,0.65,
1,137,1174,-1,0.5,0.2,
1,138,1020,-1,0.65,0,
1,139,1150,1,0,0.35,
1,140,1254,-1,0.65,0.5,
1,141,1898,-1,0.5,0,
1,142,1184,1,0.2,0.35,
1,143,1012,-1,0.8,0,
1,144,2056,-1,0.35,0.65,
1,145,1025,-1,0.2,0,
1,146,1123,1,0.35,0.5,
1,147,1224,1,0,0.2,
1,148,1927,-1,0.5,0.2,
1,149,1103,-1,0.8,0.5,
1,150,1177,1,0,0.5,
1,151,1173,1,0.5,0.65,
1,152,1127,1,0.35,0.35,
1,153,1540,1,0.2,0.05,
1,154,1574,1,0.35,0.5,
1,155,1212,-1,0.2,0.05,
1,156,1247,1,0.2,0.35,
1,157,1096,1,0.2,0.65,
1,158,1163,-1,0.65,0.2,
1,159,1068,-1,0.35,0,
1,160,1524,1,0.2,0,
1,161,1581,1,0.65,0.5,
1,162,1901,1,0.2,0.05,
1,163,1353,-1,0.35,0.5,
1,164,1977,1,0.35,0,
1,165,2311,-1,0.65,0.65,
1,166,4034,1,0.35,0.2,
1,167,4496,-1,0.05,0.65,
1,168,3360,1,0.65,0.2,
1,169,2518,1,0.2,0.05,
1,170,2633,-1,0.5,0,
1,171,1823,-1,0,0.2,
1,172,1877,-1,0.35,0.5,
1,173,1594,-1,0,0.2,
1,174,1612,-1,0.35,0.5,
1,175,1802,-1,0,0.5,
1,176,1411,-1,0.2,0.65,
1,177,1388,-1,0,0.5,
1,178,1358,1,0.2,0.35,
1,179,1781,-1,0.5,0.05,
1,180,1297,-1,0.8,0.5,
1,181,1113,-1,0.2,0.65,
1,182,2545,-1,0.5,0.2,
1,183,1569,-1,0.35,0.05,
1,184,2018,-1,0.5,0.65,
1,185,1145,1,0.5,0.2,
1,186,1527,-1,0.2,0.35,
1,187,1212,1,0.65,0.5,
1,188,1160,1,0.5,0.65,
1,189,1098,1,0.8,0.5,
1,190,1057,-1,0.2,0.65,
1,191,838,1,0.8,0,
1,192,1373,-1,0.5,0.5,
1,193,1476,-1,0,0.35,
1,194,1187,-1,0.2,0.5,
1,195,1047,1,0.35,0.65,
1,196,1063,1,0.65,0.2,
1,197,861,-1,0.35,0.35,
1,198,1220,-1,0.2,0.35,
1,199,757,1,0.65,0,
1,200,1829,1,0.5,0.8,
1,201,1958,1,0.05,0.5,
1,202,1335,-1,0.5,0.2,
1,203,1560,-1,0.35,0.5,
1,204,1322,-1,0.5,0.2,
1,205,1545,-1,0.65,0.5,
1,206,1385,-1,0.65,0.05,
1,207,2884,-1,0.2,0,
1,208,1358,1,0.05,0.2,
1,209,1663,-1,0.35,0,
1,210,1382,-1,0.2,0,
1,211,3400,-1,0.65,0.2,
1,212,1058,-1,0.5,0,
1,213,882,1,0.65,0.65,
1,214,1057,1,0.2,0.8,
1,215,1229,1,0,0.65,
1,216,1375,-1,0.05,0.5,
1,217,819,-1,0.35,0.2,
1,218,1925,1,0.2,0.2,
1,219,1062,1,0,0.2,
1,220,1320,1,0.35,0.5,
1,221,1068,1,0.65,0.35,
1,222,1506,-1,0.35,0.5,
1,223,883,1,0.05,0.2,
1,224,959,1,0.5,0.5,
1,225,1317,1,0.05,0.2,
1,226,1176,-1,0.65,0.35,
1,227,1196,-1,0.65,0.5,
1,228,1045,-1,0.65,0.2,
1,229,1060,-1,0.5,0.35,
1,230,1112,-1,0.5,0.35,
1,231,1471,-1,0.65,0.2,
1,232,1188,-1,0.65,0.65,
1,233,1411,-1,0.65,0.5,
1,234,1345,1,0,0.35,
1,235,992,1,0.2,0.65,
1,236,816,-1,0.5,0,
1,237,1740,1,0.2,0,
1,238,1032,1,0.65,0.5,
1,239,1124,1,0,0.65,
2,0,4203,-1,1.1,2.3,
2,1,4734,1,2.75,2.15,
2,2,4187,-1,0.5,2.6,
2,3,2945,-1,0,0,
2,4,3554,1,2.3,0.95,
2,5,5791,1,1.1,0.2,
2,6,630,-1,1.1,1.25,
2,7,3815,-1,0.95,1.95,
2,8,5328,1,0.65,0,
2,9,6404,-1,2.75,2.15,
2,10,2052,-1,0,2.75,
2,11,5112,1,1.7,1.25,
2,12,2769,-1,2,3,
2,13,3526,-1,2.6,2,
2,14,6337,1,1.25,0.35,
2,15,2655,-1,0.5,2.9,
2,16,2385,1,0.95,0.5,
2,17,1899,1,0.35,0.5,
2,18,2165,1,1.1,0,
2,19,2011,1,0.95,0,
2,20,4543,1,0,0,
2,21,3104,-1,0.35,3,
2,22,3357,1,0.35,0.05,
2,23,2669,-1,0,1.4,
2,24,3132,1,0.65,0,
2,25,8554,1,0.95,0.65,
2,26,4247,-1,3,2.3,
2,27,4917,-1,0.2,1.25,
2,28,5040,1,0.35,1.1,
2,29,2385,1,2.3,0,
2,30,2413,-1,0.2,1.95,
2,31,2459,-1,0.95,2.3,
2,32,4277,-1,1.25,0.35,
2,33,3671,1,0.05,0.2,
2,34,1866,1,3,0,
2,35,2340,-1,0.5,0.65,
2,36,4751,-1,0,2.75,
2,37,5185,1,0,0,
2,38,2073,1,2,0.05,
2,39,2031,-1,0,2,
2,40,4138,-1,0.95,0,
2,41,1615,-1,1.1,0,
2,42,1521,-1,0.95,0.5,
2,43,1833,-1,2.3,0,
2,44,1921,1,0.5,2.6,
2,45,1472,-1,2,0.05,
2,46,3630,-1,1.1,0.2,
2,47,2730,-1,1.25,0.35,
2,48,5770,-1,2.75,2.15,
2,49,2833,-1,0.05,0.2,
2,50,1616,-1,0.65,0,
2,51,1776,1,0,1.4,
2,52,1554,1,0.2,1.95,
2,53,2881,-1,0,0,
2,54,2592,-1,0.65,0,
2,55,1966,1,0.95,2.3,
2,56,4961,1,1.25,0.35,
2,57,4289,1,0,0,
2,58,2382,1,2,3,
2,59,1627,-1,3,0,
2,60,1506,1,0,2,
2,61,3071,1,0,2.75,
2,62,1683,1,0.5,2.9,
2,63,1869,-1,2.3,0.95,
2,64,1236,-1,0.35,0.05,
2,65,5758,1,3,2.3,
2,66,3641,-1,1.1,1.25,
2,67,1984,-1,0,0,
2,68,2387,1,0.35,3,
2,69,1672,1,0.95,1.95,
2,70,3178,-1,0.35,1.1,
2,71,4034,-1,1.7,1.25,
2,72,2266,1,0.2,1.25,
2,73,9110,1,2.75,2.15,
2,74,1914,-1,0.95,0.65,
2,75,2310,1,2.6,2,
2,76,3482,-1,0.35,0.5,
2,77,2185,1,0,2.75,
2,78,1643,1,0.5,0.65,
2,79,6848,1,1.1,2.3,
2,80,1964,-1,1.25,2.15,
2,81,2323,1,2,0,
2,82,2812,1,1.25,0.2,
2,83,2225,-1,0,0,
2,84,1786,1,1.95,0.2,
2,85,1676,-1,0.2,0.05,
2,86,2207,-1,0,0.35,
2,87,1493,-1,0,0.5,
2,88,5068,1,2.15,0.5,
2,89,3112,1,2.15,2.75,
2,90,4139,1,0.5,1.7,
2,91,2312,1,2.9,0.5,
2,92,2852,-1,0,0.35,
2,93,3026,1,2,2.6,
2,94,3254,-1,0.65,2.3,
2,95,2383,-1,0,2.15,
2,96,2269,1,2.75,0,
2,97,1511,-1,0.05,2.75,
2,98,14774,-1,1.25,1.7,
2,99,2133,1,2.15,0,
2,100,3904,1,2.9,1.1,
2,101,3875,-1,0.2,0.2,
2,102,2880,-1,0,0.65,
2,103,1806,-1,0,0.65,
2,104,2263,-1,0.35,2.85,
2,105,7731,1,2.6,0.5,
2,106,3051,-1,0.35,1.25,
2,107,2542,-1,0.5,2.6,
2,108,3003,1,2.3,0.95,
2,109,2876,1,2.6,2.75,
2,110,1992,1,1.1,0.65,
2,111,2447,-1,0.2,1.1,
2,112,4018,-1,0,2.3,
2,113,3263,1,0.35,1.25,
2,114,2281,-1,0,0,
2,115,6951,-1,0.35,0.5,
2,116,3526,1,1.95,0.95,
2,117,2094,1,3,0.35,
2,118,3462,-1,2.3,2.85,
2,119,1916,1,1.1,1.4,
2,120,3014,-1,1.95,0.95,
2,121,1248,-1,1.95,0.2,
2,122,1962,-1,2,0,
2,123,1814,1,0.35,2.85,
2,124,2794,1,0,0,
2,125,4583,-1,0.35,0.5,
2,126,5363,1,0.2,0.2,
2,127,3832,1,0.35,1.25,
2,128,1041,-1,2.15,0,
2,129,2045,1,0.05,2.75,
2,130,1479,-1,2.6,0.5,
2,131,1750,-1,0.35,1.25,
2,132,2726,-1,2.9,1.1,
2,133,2387,1,0.2,0.05,
2,134,1629,1,0.5,2.6,
2,135,3360,-1,2.75,0,
2,136,1625,-1,2,2.6,
2,137,1991,1,0,0.65,
2,138,5695,1,0,0,
2,139,1470,1,0.2,1.1,
2,140,1108,1,0,2.3,
2,141,1263,1,0,0.5,
2,142,1223,1,0.65,2.3,
2,143,944,1,0,2.15,
2,144,966,-1,3,0.35,
2,145,1471,-1,2.9,0.5,
2,146,1325,-1,2.3,0.95,
2,147,2047,-1,0.5,1.7,
2,148,1318,1,0,0.65,
2,149,1410,-1,2.6,2.75,
2,150,1109,-1,1.1,0.65,
2,151,2158,1,0,0.35,
2,152,3687,-1,1.25,1.7,
2,153,2117,-1,1.1,1.4,
2,154,1499,-1,2.15,2.75,
2,155,871,1,1.25,2.15,
2,156,1230,-1,2.15,0.5,
2,157,1466,-1,1.25,0.2,
2,158,1764,1,2.3,2.85,
2,159,2222,1,0,0.35,
2,160,4374,-1,1.25,1.1,
2,161,1255,1,0,3,
2,162,2214,1,0.5,0,
2,163,1485,1,2.75,0.05,
2,164,1662,1,0.35,0,
2,165,1511,-1,0.5,2.15,
2,166,2811,-1,2.15,2.75,
2,167,2105,1,2.75,0,
2,168,1197,-1,0,2.15,
2,169,1095,-1,0,1.1,
2,170,2910,-1,1.7,0.5,
2,171,430,-1,0,0.95,
2,172,2373,1,2.3,0,
2,173,1275,-1,1.1,2.9,
2,174,2077,-1,0.65,0.95,
2,175,4286,1,2.3,1.1,
2,176,3626,-1,2.3,3,
2,177,2098,-1,2.75,2.6,
2,178,2018,-1,0.5,0.35,
2,179,2155,-1,1.1,0.35,
2,180,1312,-1,0,2.3,
2,181,2025,-1,0,0,
2,182,2711,-1,0.35,0,
2,183,1879,1,0.05,0.35,
2,184,2481,1,2.3,0.65,
2,185,1066,-1,1.4,1.1,
2,186,1863,1,3,2,
2,187,6252,-1,0.5,0.35,
2,188,1516,1,0.65,0.5,
2,189,1693,-1,0.05,2,
2,190,1415,1,2.6,0.5,
2,191,1477,1,2.15,0,
2,192,1115,-1,0.65,1.1,
2,193,2117,-1,0.95,2.3,
2,194,3668,1,1.4,0,
2,195,1212,1,2.15,1.25,
2,196,1658,1,2.85,0.35,
2,197,1081,-1,0.5,0.95,
2,198,1605,1,0.2,0.2,
2,199,2735,1,2.85,2.3,
2,200,1351,-1,0.35,0,
2,201,1418,1,0.5,0.95,
2,202,1152,1,0,1.1,
2,203,2764,1,1.25,1.1,
2,204,2555,1,2.75,2.6,
2,205,1966,1,0,3,
2,206,1839,1,0.65,1.1,
2,207,1619,-1,2.15,1.25,
2,208,4705,1,2.3,3,
2,209,1404,-1,0.65,0.5,
2,210,2197,-1,2.3,0,
2,211,2248,-1,2.85,2.3,
2,212,2783,-1,2.3,1.1,
2,213,1276,1,0.5,0.35,
2,214,1925,-1,0.35,0,
2,215,1836,-1,3,2,
2,216,2134,-1,2.3,0.65,
2,217,1352,1,0,2.15,
2,218,1285,-1,2.85,0.35,
2,219,1344,1,0,0.95,
2,220,1834,1,1.7,0.5,
2,221,2169,1,1.1,0.35,
2,222,1192,-1,2.15,0,
2,223,1448,1,1.1,2.9,
2,224,1618,1,0.05,2,
2,225,2337,-1,0.2,0.2,
2,226,1817,-1,2.75,0,
2,227,953,-1,2.75,0.05,
2,228,1666,1,0.65,0.95,
2,229,1120,-1,2.6,0.5,
2,230,1819,1,0.95,2.3,
2,231,1672,1,1.4,1.1,
2,232,4290,-1,0.5,0,
2,233,1477,1,2.15,2.75,
2,234,1372,1,0,2.3,
2,235,1507,1,0.5,2.15,
2,236,2567,-1,1.4,0,
2,237,1513,1,0,0,
2,238,1648,1,0.05,0.35,
2,239,1125,1,0.5,0.35,
3,0,4777,-1,0,0.95,
3,1,7090,-1,0.05,0.95,
3,2,4338,1,1.55,0.05,
3,3,11097,-1,1.1,0.95,
3,4,5289,-1,0.95,1.1,
3,5,3754,1,1.1,0.5,
3,6,3146,-1,0.35,1.1,
3,7,2635,1,1.7,1.4,
3,8,3422,-1,0,0.5,
3,9,9677,1,2.45,1.1,
3,10,2342,-1,0,0.05,
3,11,2643,1,1.25,0.5,
3,12,2593,-1,0.95,1.55,
3,13,2975,-1,0,0.05,
3,14,3094,-1,0.95,1.1,
3,15,2419,1,0.65,0,
3,16,9847,1,1.4,0.95,
3,17,2667,1,0.95,0.05,
3,18,2451,1,0.65,0,
3,19,1832,-1,0,0.05,
3,20,4519,-1,0.05,0.95,
3,21,2357,-1,0.05,1.1,
3,22,2320,-1,0.35,0.8,
3,23,3029,-1,0.35,1.55,
3,24,3476,-1,0.65,1.7,
3,25,2531,1,0.95,0,
3,26,4449,-1,0.8,0.95,
3,27,2778,1,1.4,0,
3,28,3198,1,1.25,0,
3,29,2604,1,0.95,0,
3,30,1736,-1,0,1.55,
3,31,1528,-1,0,1.1,
3,32,7987,-1,0,0,
3,33,1808,-1,0.05,0.65,
3,34,7586,1,0.95,0.95,
3,35,2152,1,0.95,0,
3,36,5162,1,0.95,1.25,
3,37,4705,1,0.95,0.05,
3,38,8093,-1,0.95,2.3,
3,39,8516,-1,0.35,0.8,
3,40,3916,-1,0,0,
3,41,2427,-1,2.45,0.65,
3,42,3746,1,0.05,0.35,
3,43,3621,-1,1.1,0.35,
3,44,2167,1,1.55,0.95,
3,45,2378,-1,2.45,1.55,
3,46,3483,-1,1.1,0.65,
3,47,2759,1,0,0.95,
3,48,11236,1,0.05,0.65,
3,49,2620,1,0.05,0.95,
3,50,5035,-1,0.95,1.1,
3,51,6939,-1,1.4,1.25,
3,52,2210,1,0,0.95,
3,53,1773,1,0.05,1.4,
3,54,1790,1,0,0.65,
3,55,4010,1,1.55,0.2,
3,56,2599,1,0,1.25,
3,57,8879,-1,2.45,0.65,
3,58,2397,-1,1.4,0.65,
3,59,2316,-1,0.65,0.05,
3,60,1897,-1,1.7,0.65,
3,61,7320,1,0.5,0.65,
3,62,3510,-1,0.05,0,
3,63,2683,1,0.05,1.55,
3,64,1943,1,0.05,0.65,
3,65,1684,-1,0.65,0.2,
3,66,3811,1,0.95,1.4,
3,67,1739,1,0.5,1.25,
3,68,2891,-1,0.8,0.35,
3,69,4217,1,0.65,2.3,
3,70,6103,1,0.95,0.95,
3,71,5579,-1,0.8,0.8,
3,72,4646,1,0.8,0.35,
3,73,4253,1,0.05,0.95,
3,74,2616,1,1.25,0.95,
3,75,5075,-1,0.95,0.8,
3,76,2093,-1,0.65,0.8,
3,77,4899,1,1.1,1.55,
3,78,4563,1,1.1,0.95,
3,79,2354,-1,0.95,0,
3,80,8523,1,1.55,1.1,
3,81,2491,1,0.95,0.05,
3,82,2304,-1,0,0.65,
3,83,2587,1,1.4,0.05,
3,84,2710,1,2.3,0.65,
3,85,4325,1,0.65,0.05,
3,86,2295,1,0.65,0.05,
3,87,2445,-1,0.8,0.65,
3,88,3839,1,1.55,0.95,
3,89,2748,1,1.55,0.35,
3,90,2838,1,0.65,0.5,
3,91,5352,1,1.55,2.45,
3,92,3472,-1,0.65,1.4,
3,93,1811,-1,0.8,0.8,
3,94,3039,1,0.5,0,
3,95,2841,1,0.35,0.05,
3,96,11103,1,0.8,0.35,
3,97,1573,-1,0.65,2.45,
3,98,1916,1,1.55,0,
3,99,3020,1,0.05,0,
3,100,3972,1,2.3,0.95,
3,101,3019,-1,0.8,0.95,
3,102,6740,1,0.5,1.1,
3,103,2329,1,0.95,0.8,
3,104,4697,-1,1.1,2.45,
3,105,6004,-1,0.35,0.8,
3,106,2018,1,1.1,0,
3,107,2470,1,0.2,1.55,
3,108,2635,1,1.25,1.4,
3,109,1999,1,1.1,0.05,
3,110,3486,-1,0.65,1.1,
3,111,1772,1,1.1,0.95,
3,112,3926,1,0.95,0.05,
3,113,2001,-1,0,0.95,
3,114,2195,-1,1.4,1.7,
3,115,2002,-1,0,1.4,
3,116,1932,1,0.05,0,
3,117,2868,1,0.65,2.45,
3,118,2314,-1,0.2,0.65,
3,119,2149,1,0.95,1.55,
3,120,3952,1,0,0.05,
3,121,1354,-1,1.25,0.5,
3,122,1708,1,0.95,1.1,
3,123,1662,-1,0.95,1.25,
3,124,3300,-1,1.4,0.95,
3,125,2187,1,0.35,1.55,
3,126,1537,-1,0.95,0,
3,127,4601,1,0.05,0.95,
3,128,1768,-1,0,0.05,
3,129,2069,-1,1.7,1.4,
3,130,3884,1,0,0,
3,131,1877,1,0.05,1.1,
3,132,1563,-1,1.4,0,
3,133,1706,1,0,1.1,
3,134,4268,-1,0.95,0.95,
3,135,1762,1,0.65,1.7,
3,136,1773,1,0.35,1.1,
3,137,7000,-1,0.95,0.05,
3,138,3982,-1,0.65,0,
3,139,1869,-1,0.95,0,
3,140,2105,-1,0.95,0,
3,141,1507,-1,0.95,0.05,
3,142,2742,1,0.35,0.8,
3,143,2430,1,0.05,0.65,
3,144,2550,1,0,0.5,
3,145,2499,1,1.1,0.5,
3,146,3249,-1,0.95,1.1,
3,147,2161,1,0,1.55,
3,148,2270,1,0.8,0.95,
3,149,2322,-1,0.65,0,
3,150,1885,1,0,0.05,
3,151,2328,1,0.05,0.95,
3,152,1789,1,0,0.95,
3,153,3082,1,1.1,0.95,
3,154,2710,1,0.95,2.3,
3,155,3318,-1,2.45,1.1,
3,156,1596,-1,1.55,0.05,
3,157,2020,1,0.95,1.55,
3,158,1498,-1,1.25,0,
3,159,3854,1,0.35,0.8,
3,160,4482,1,0.05,0.65,
3,161,2049,1,0.65,0.8,
3,162,2621,-1,1.1,0.65,
3,163,3313,-1,1.1,0.95,
3,164,1616,-1,1.55,0.95,
3,165,1869,1,2.45,0.65,
3,166,4355,1,0.8,0.35,
3,167,1976,-1,0.05,0.95,
3,168,1653,-1,0.05,0.95,
3,169,2198,-1,0.5,1.25,
3,170,1692,1,0.8,0.35,
3,171,1836,-1,0,0.95,
3,172,1472,1,0.8,0.8,
3,173,4448,1,2.45,0.65,
3,174,1249,-1,0.05,1.55,
3,175,5278,-1,0.5,0.65,
3,176,2021,-1,0,0.95,
3,177,7385,1,0.95,0.8,
3,178,2576,-1,1.25,0.95,
3,179,1866,1,0.65,0.05,
3,180,4400,1,0.95,1.1,
3,181,1694,1,0.05,0,
3,182,2222,1,2.45,1.55,
3,183,1475,-1,0.05,1.4,
3,184,4503,-1,1.1,1.55,
3,185,1636,1,0.65,0.2,
3,186,1509,-1,0,0.65,
3,187,1361,-1,1.55,0.2,
3,188,1715,-1,0.05,0.35,
3,189,2088,1,1.4,0.65,
3,190,1992,1,1.1,0.35,
3,191,2412,1,1.7,0.65,
3,192,2200,1,0.95,0,
3,193,3664,-1,0.65,2.3,
3,194,9602,1,1.4,1.25,
3,195,2676,-1,0.95,1.4,
3,196,1788,1,0,0,
3,197,1656,-1,0,1.25,
3,198,1366,-1,0.05,0.65,
3,199,3515,-1,0.95,0.95,
3,200,3897,-1,0.95,0.8,
3,201,1515,-1,0.95,1.55,
3,202,2095,1,0.8,0.65,
3,203,1847,-1,1.55,0.95,
3,204,3787,1,0.65,0.5,
3,205,3488,-1,1.55,1.1,
3,206,4082,1,0.8,0.95,
3,207,2037,1,0.2,0.65,
3,208,1874,1,0.8,0.8,
3,209,1663,1,0,1.4,
3,210,5986,-1,0.8,0.35,
3,211,7087,1,1.25,1.4,
3,212,1695,1,0,0.65,
3,213,1739,1,0.65,1.4,
3,214,3157,-1,2.3,0.65,
3,215,1509,-1,1.1,0,
3,216,4811,1,0.65,2.45,
3,217,1924,-1,0.95,0.05,
3,218,1294,-1,0.65,0.05,
3,219,1835,-1,0.2,1.55,
3,220,2191,1,0,0.95,
3,221,1573,1,1.4,1.7,
3,222,2013,-1,2.3,0.95,
3,223,1253,-1,1.55,0.35,
3,224,2332,-1,0.5,0,
3,225,3469,1,1.55,2.45,
3,226,7005,-1,0.35,0.8,
3,227,4749,-1,0.95,0.05,
3,228,2096,1,1.1,2.45,
3,229,1272,-1,1.55,0,
3,230,3300,-1,0.35,0.05,
3,231,1336,-1,1.1,0.05,
3,232,1260,-1,1.4,0.05,
3,233,1340,-1,0.05,0,
3,234,3912,-1,0.65,0.05,
3,235,1344,-1,0.05,0,
3,236,3005,1,0.65,1.1,
3,237,1676,-1,1.1,0.95,
3,238,2666,-1,0.5,1.1,
3,239,1883,1,0.65,2.45,
4,0,5222,1,0,0,
4,1,3005,1,0.65,0,
4,2,4264,-1,0,0,
4,3,3576,-1,0.5,0.95,
4,4,4101,1,0.8,0.65,
4,5,3769,-1,0,0.8,
4,6,5630,-1,0,0,
4,7,7975,1,0.5,0,
4,8,3312,-1,0,0.65,
4,9,6307,-1,0.05,0.2,
4,10,2421,-1,0,0.8,
4,11,3952,1,0.6,0.35,
4,12,3593,-1,0,0.05,
4,13,2755,1,1.1,0,
4,14,2761,1,0.2,0,
4,15,2862,-1,0.35,0.8,
4,16,3387,1,0.05,0,
4,17,7527,-1,0.5,0.65,
4,18,2628,-1,0,0,
4,19,2234,-1,0,0.05,
4,20,7720,-1,0.5,1.1,
4,21,2831,-1,0,0.8,
4,22,9213,1,0,0,
4,23,2965,-1,0,0.95,
4,24,2774,1,0.05,0,
4,25,5143,-1,0,0,
4,26,2852,-1,0,1.1,
4,27,4989,-1,0,0.5,
4,28,3957,1,0.5,0,
4,29,2622,-1,0,0.95,
4,30,3354,1,1.1,0.05,
4,31,1733,1,0.6,0,
4,32,3966,-1,0,0,
4,33,5645,-1,0.05,0,
4,34,7195,-1,0,0,
4,35,1676,1,1.1,0,
4,36,1211,1,0.8,0.5,
4,37,1440,1,0,0,
4,38,3679,-1,0.05,0.2,
4,39,2146,-1,0,0,
4,40,1944,-1,0.05,0,
4,41,3591,1,0,0,
4,42,1669,-1,0.8,0.65,
4,43,1473,-1,0.6,0,
4,44,1379,1,0,0.65,
4,45,2554,1,0,0,
4,46,1539,-1,0.5,0,
4,47,1370,1,0,0,
4,48,1375,1,0,0.95,
4,49,3063,1,0.05,0.2,
4,50,1369,1,0,0.05,
4,51,1598,1,0,0.95,
4,52,1833,-1,0,0,
4,53,1252,1,0.35,0.8,
4,54,1773,-1,0.65,0,
4,55,1471,1,0,0.8,
4,56,3207,-1,0.5,0,
4,57,1903,-1,0,0,
4,58,2550,-1,1.1,0.05,
4,59,1988,-1,0.2,0,
4,60,1531,-1,1.1,0,
4,61,4111,1,0.5,0.65,
4,62,5355,1,0,0,
4,63,1387,-1,1.1,0,
4,64,1688,-1,0.6,0.35,
4,65,3569,1,0,0.05,
4,66,1619,1,0.5,1.1,
4,67,4123,1,0,0,
4,68,1834,1,0,0,
4,69,1416,1,0.05,0.2,
4,70,1288,1,0,0.8,
4,71,1361,1,0,1.1,
4,72,1465,1,0.05,0,
4,73,1650,-1,0.05,0,
4,74,2292,1,0,0,
4,75,1348,1,0,0.5,
4,76,1407,-1,0.8,0.5,
4,77,1486,1,0,0.8,
4,78,1610,1,0.5,0.95,
4,79,2680,-1,0,0,
4,80,2987,1,0,0,
4,81,1400,1,0,0,
4,82,1921,1,0,0,
4,83,5268,-1,0.8,0.8,
4,84,5303,-1,0,1.1,
4,85,1447,1,0.8,0,
4,86,1275,-1,0,0.5,
4,87,2740,-1,0,0.2,
4,88,1491,1,0,0,
4,89,1521,-1,0.5,0.8,
4,90,1373,-1,0,0,
4,91,1781,1,0.5,0,
4,92,2364,1,0.65,0.05,
4,93,3183,1,0.65,0.5,
4,94,2299,1,0,0,
4,95,1407,1,1.1,0,
4,96,1452,1,0.8,0.35,
4,97,1164,-1,0,0.65,
4,98,2983,1,0.35,0,
4,99,1923,1,0.05,0,
4,100,876,-1,0,1.1,
4,101,2857,1,0,0,
4,102,2844,1,0,0,
4,103,2683,1,0.8,0,
4,104,1196,1,0,0,
4,105,1227,-1,0,0.05,
4,106,1266,1,0.8,0,
4,107,1336,1,0.65,0,
4,108,2497,1,0.8,0.05,
4,109,1481,1,0.8,0,
4,110,2890,-1,0.35,0,
4,111,1645,-1,0.05,1.1,
4,112,1103,1,0.2,0.05,
4,113,2478,1,0,0,
4,114,1333,-1,0.05,0.95,
4,115,1416,1,0.05,0,
4,116,1183,-1,0,0.5,
4,117,2441,-1,0,0,
4,118,1500,-1,0,0.2,
4,119,1450,-1,0,0.8,
4,120,2420,-1,0,0,
4,121,2161,-1,0,0,
4,122,1342,-1,0.8,0,
4,123,1253,1,0,0,
4,124,1262,-1,0.8,0,
4,125,1895,1,0,0,
4,126,2956,-1,0.65,0.5,
4,127,1518,-1,0.8,0,
4,128,1020,1,0,1.1,
4,129,1407,-1,0,0,
4,130,2155,-1,0.5,0,
4,131,1575,1,0,0.65,
4,132,1830,-1,0,0,
4,133,1061,-1,0,0,
4,134,1095,1,0.5,0.8,
4,135,1536,1,0,0,
4,136,1046,-1,1.1,0,
4,137,1951,-1,0.8,0.35,
4,138,1306,-1,0,0,
4,139,1983,1,0,0.2,
4,140,1847,-1,0,0.2,
4,141,1761,1,0.05,0.95,
4,142,2454,-1,0.05,0,
4,143,2720,1,0.35,0,
4,144,1076,-1,0.2,0.05,
4,145,1871,1,0,0.8,
4,146,926,-1,0.65,0.05,
4,147,1366,-1,0.05,0,
4,148,1282,1,0,1.1,
4,149,1485,1,0,0.05,
4,150,2086,-1,0.8,0.05,
4,151,1351,-1,0.65,0,
4,152,1516,-1,0,0.5,
4,153,1085,1,0,0,
4,154,1580,-1,0.35,0,
4,155,1235,-1,0.8,0,
4,156,1850,1,0.8,0.8,
4,157,1398,1,0.05,1.1,
4,158,1486,1,0,0.5,
4,159,4333,-1,0,0,
4,160,1562,-1,0,0.6,
4,161,1767,-1,0,0,
4,162,888,-1,0.05,0.8,
4,163,1439,1,0.2,0.05,
4,164,1676,1,0.65,0,
4,165,1546,-1,0.35,0.6,
4,166,1249,1,1.1,0,
4,167,1145,1,0.95,0,
4,168,1512,1,0,0.35,
4,169,1367,-1,0,0.8,
4,170,1522,1,0.95,0.05,
4,171,1074,1,0,0,
4,172,934,1,1.1,0.5,
4,173,1556,-1,0,0.5,
4,174,1114,-1,0,0.8,
4,175,1621,-1,0,0.35,
4,176,2184,-1,0,0,
4,177,1325,1,0.5,0,
4,178,1246,-1,0,0,
4,179,1597,-1,0,0.05,
4,180,2734,1,0.8,0.8,
4,181,1054,-1,0,0.65,
4,182,4260,1,0.2,0,
4,183,1232,-1,0,0,
4,184,1732,-1,0,0,
4,185,843,-1,0,1.1,
4,186,1250,1,0,0.05,
4,187,1576,1,0.05,0,
4,188,1219,-1,0.65,0.8,
4,189,1461,-1,0,0,
4,190,2581,-1,0,0.05,
4,191,985,1,0.95,0,
4,192,961,1,0.8,0,
4,193,978,1,0.8,0,
4,194,4419,-1,0,0,
4,195,1302,-1,0,0,
4,196,1153,1,0,0,
4,197,1033,-1,0.05,0.65,
4,198,957,1,0.95,0.5,
4,199,1271,1,0,0,
4,200,2015,-1,0.5,0,
4,201,1236,-1,0.95,0,
4,202,1346,1,0,0,
4,203,1235,1,0.65,0.8,
4,204,1382,1,0,0,
4,205,1491,1,0,0,
4,206,2413,-1,0.65,0,
4,207,1509,-1,0.8,0,
4,208,1114,1,0,0.5,
4,209,1071,1,0,0.6,
4,210,1696,-1,0,0,
4,211,2318,1,0.2,0.05,
4,212,1504,-1,1.1,0,
4,213,1920,-1,1.1,0.5,
4,214,1381,-1,0.95,0,
4,215,4618,1,0,0.05,
4,216,1067,1,0.35,0.6,
4,217,1600,-1,0,0,
4,218,903,1,0,0,
4,219,1515,1,0,0.05,
4,220,1737,-1,0.2,0,
4,221,943,1,0,1.1,
4,222,1317,1,0.05,0.65,
4,223,1197,1,0,0.8,
4,224,2430,1,0,0,
4,225,1257,-1,0.8,0,
4,226,2005,1,0,0.35,
4,227,1129,1,0,0.8,
4,228,1162,1,0,0.65,
4,229,1801,-1,0,0,
4,230,2430,1,0,0,
4,231,1379,1,0.05,0.8,
4,232,1529,-1,0.95,0.5,
4,233,2327,-1,0,0,
4,234,1531,-1,0,0.35,
4,235,1360,-1,0,0.05,
4,236,1619,-1,0.05,0,
4,237,1415,-1,0,0,
4,238,1552,-1,0.8,0.8,
4,239,1627,-1,0.95,0.05,
5,0,4573,-1,0.5,0.65,
5,1,3339,-1,0.5,0.8,
5,2,5410,1,1.4,0,
5,3,10236,1,0.65,0.8,
5,4,5784,-1,0.5,0.65,
5,5,3272,1,1.1,0.5,
5,6,2593,1,0.8,0.65,
5,7,4628,1,1.1,0.65,
5,8,2522,1,0.65,0,
5,9,9605,-1,0.65,0.8,
5,10,1583,1,0.2,0.95,
5,11,5220,-1,0.8,1.1,
5,12,7521,1,0.65,0.65,
5,13,2083,-1,0,0.5,
5,14,3647,-1,0.95,0.8,
5,15,2790,-1,0,0.5,
5,16,4538,-1,0.95,1.1,
5,17,2889,-1,0.35,0.95,
5,18,4539,1,0.2,0.8,
5,19,2411,1,0.8,0.8,
5,20,1791,-1,0.35,0.65,
5,21,11451,-1,0.95,0.65,
5,22,12467,-1,0.65,0.95,
5,23,3323,-1,0.5,0.5,
5,24,3139,-1,0.95,0.5,
5,25,6585,-1,0.8,1.1,
5,26,2175,1,0.95,0.35,
5,27,9514,1,0.65,1.1,
5,28,2883,1,1.25,1.1,
5,29,6008,1,1.1,0.8,
5,30,2064,1,1.1,0.2,
5,31,2596,-1,0.95,0.65,
5,32,7987,-1,0.95,0.95,
5,33,3846,-1,0.8,0.95,
5,34,4457,-1,0.35,0.95,
5,35,2606,-1,0.5,0.8,
5,36,2338,-1,0.5,0.65,
5,37,9804,-1,0.65,0.8,
5,38,4005,1,1.4,0.95,
5,39,4239,1,0.8,0.5,
5,40,2028,-1,1.4,0.95,
5,41,2197,1,0.5,0.65,
5,42,1864,1,0.5,0.8,
5,43,2066,1,0.35,0.65,
5,44,1702,1,0.35,0.95,
5,45,2343,1,0.2,0.95,
5,46,3469,-1,1.1,0.8,
5,47,4105,-1,0.8,0.5,
5,48,2482,1,0,0.5,
5,49,3178,1,0.35,0.95,
5,50,1763,-1,1.1,0.65,
5,51,2708,1,0.95,0.95,
5,52,3466,-1,1.4,0,
5,53,1868,-1,0.65,0.65,
5,54,2141,-1,0.65,0,
5,55,1801,1,0.5,0.65,
5,56,4713,1,0.95,0.65,
5,57,1717,-1,1.1,0.2,
5,58,1870,-1,0.65,0.8,
5,59,1629,-1,1.1,0.5,
5,60,2029,1,0.5,0.8,
5,61,3458,1,0.95,1.1,
5,62,2113,1,0.95,0.8,
5,63,2422,1,0.65,0.8,
5,64,2205,-1,0.65,1.1,
5,65,2222,-1,0.8,0.65,
5,66,3793,1,0.5,0.65,
5,67,2187,1,0.8,1.1,
5,68,2330,-1,0.95,0.35,
5,69,3852,1,0.95,0.65,
5,70,3695,-1,0.65,0.95,
5,71,3260,-1,0.8,0.8,
5,72,24903,-1,0.2,0.8,
5,73,4399,1,0.65,0.8,
5,74,3612,1,0,0.5,
5,75,2359,1,0.8,0.95,
5,76,4328,1,0.8,1.1,
5,77,1866,1,0.5,0.5,
5,78,2742,-1,1.25,1.1,
5,79,2290,1,0.95,0.5,
5,80,2777,1,0.5,0,
5,81,1763,-1,0,1.1,
5,82,2346,-1,0.65,0.8,
5,83,1407,1,0.65,0.5,
5,84,1645,1,1.25,0.8,
5,85,2029,1,0.65,0.5,
5,86,1395,1,0.5,0,
5,87,1998,-1,0.65,1.1,
5,88,2131,1,0.8,0.65,
5,89,2170,-1,0.35,0.65,
5,90,2591,-1,0.95,0.95,
5,91,2569,-1,0.2,1.1,
5,92,2201,1,0.8,0.95,
5,93,3203,-1,0.2,0.35,
5,94,1679,1,0.8,0.95,
5,95,11481,-1,0.8,0.65,
5,96,2299,-1,0.95,0.65,
5,97,4372,-1,0.35,1.1,
5,98,3020,1,1.1,0.5,
5,99,2617,-1,0.8,0.8,
5,100,2997,1,0.95,0.8,
5,101,3094,1,0.95,0.35,
5,102,1646,1,1.1,0.95,
5,103,2145,-1,0.35,0.5,
5,104,1666,1,0.5,0.8,
5,105,2162,1,1.1,0.65,
5,106,4106,-1,0.95,1.1,
5,107,3549,1,0.65,0.95,
5,108,2059,1,1.1,0.95,
5,109,1836,1,0.95,0.35,
5,110,2797,-1,0.95,1.4,
5,111,3814,1,0.65,0.35,
5,112,1552,1,0.5,0.95,
5,113,1761,1,1.1,0.8,
5,114,1830,1,0.8,0.5,
5,115,4063,-1,0.5,0.8,
5,116,2243,1,0.65,0.95,
5,117,2007,1,0.95,0,
5,118,1930,1,0.65,0.65,
5,119,1921,1,0.65,0.5,
5,120,4077,1,0.95,0.95,
5,121,1560,-1,1.1,0.95,
5,122,2605,-1,0.5,0,
5,123,1836,1,0.2,0.35,
5,124,1968,-1,1.1,0.8,
5,125,3258,-1,0.65,0.5,
5,126,3518,-1,0.95,0.8,
5,127,1889,-1,0.95,0.35,
5,128,1837,-1,0.65,0.5,
5,129,2012,1,0.8,0.65,
5,130,2183,-1,0.5,0,
5,131,1414,1,0.35,1.1,
5,132,1778,1,0,1.1,
5,133,2422,-1,1.25,0.8,
5,134,1579,-1,1.1,0.95,
5,135,2238,-1,0.5,0.95,
5,136,1383,1,0.8,0.95,
5,137,2886,-1,0.5,0.8,
5,138,1683,1,0.95,0.65,
5,139,3159,-1,0.65,0.35,
5,140,1700,1,0.35,0.5,
5,141,1632,-1,0.8,0.65,
5,142,3465,-1,0.8,0.5,
5,143,2207,-1,0.95,0.35,
5,144,2594,1,0.8,0.8,
5,145,1828,-1,1.1,0.5,
5,146,1993,-1,0.8,0.95,
5,147,2343,-1,0.65,0.65,
5,148,1632,1,0.65,1.1,
5,149,1456,-1,0.65,0.95,
5,150,2478,-1,0.65,0.5,
5,151,1991,1,0.2,1.1,
5,152,1905,1,0.35,0.65,
5,153,2195,-1,1.1,0.65,
5,154,1754,-1,0.95,0,
5,155,2658,1,0.65,0.8,
5,156,1755,1,0.95,1.4,
5,157,2863,1,0.95,1.1,
5,158,1514,-1,0.65,0.95,
5,159,2971,1,0.5,0.8,
5,160,3888,1,0.5,1.1,
5,161,2296,-1,0.65,0.65,
5,162,2063,-1,0.95,1.1,
5,163,1723,1,0.95,0.2,
5,164,1541,-1,0.65,1.1,
5,165,1576,-1,0,1.4,
5,166,1790,1,0.8,0.5,
5,167,1449,-1,0.8,0.65,
5,168,2175,1,0.65,0.35,
5,169,2671,-1,0.65,0.65,
5,170,3138,-1,0,0.65,
5,171,2577,1,1.1,0.95,
5,172,1451,1,0.5,0.35,
5,173,1971,1,0.8,0.65,
5,174,1307,-1,0.8,0.8,
5,175,2366,-1,0.5,0.8,
5,176,2330,-1,0.95,0.8,
5,177,2702,-1,0.35,0.2,
5,178,1837,-1,0.35,0.95,
5,179,2763,1,0.95,0.35,
5,180,1789,-1,0.8,1.25,
5,181,2434,1,0.8,0.8,
5,182,2746,-1,1.1,0.65,
5,183,1398,1,0.8,0.5,
5,184,1415,-1,0.35,0.95,
5,185,1682,-1,0.95,1.1,
5,186,1284,1,1.1,0.35,
5,187,2749,-1,0.8,0.2,
5,188,1729,1,1.1,0,
5,189,1498,1,1.1,0.95,
5,190,1516,1,0.5,0.5,
5,191,1479,-1,0.65,0.8,
5,192,2344,1,1.1,0.8,
5,193,1706,-1,0,0.95,
5,194,1624,-1,0.8,1.1,
5,195,1659,-1,0.35,0.65,
5,196,1798,-1,1.1,1.25,
5,197,1976,1,0.65,0.35,
5,198,1669,-1,0.8,0.5,
5,199,1403,-1,0.5,1.1,
5,200,1826,-1,1.1,0.95,
5,201,1908,-1,1.1,0.8,
5,202,2450,-1,0,0.65,
5,203,2532,-1,0.8,0.5,
5,204,1653,-1,0.5,0.35,
5,205,2581,-1,0.5,0.8,
5,206,1539,-1,1.1,0.95,
5,207,1602,1,0.65,0.65,
5,208,2941,1,1.1,0.65,
5,209,2425,-1,0.65,0.65,
5,210,1935,-1,0.95,0.35,
5,211,1552,1,0.65,0.8,
5,212,2729,1,0.95,1.1,
5,213,1878,1,0.8,0.65,
5,214,1452,1,0.5,1.1,
5,215,1693,1,0.8,0.5,
5,216,1529,1,0.8,0.2,
5,217,2201,1,0.8,0.8,
5,218,3317,-1,0.35,0.2,
5,219,1205,-1,1.1,0,
5,220,1749,1,0.8,0.5,
5,221,1554,1,1.1,1.25,
5,222,1827,-1,0.95,0.2,
5,223,1525,1,0.65,1.1,
5,224,1791,1,0.35,0.95,
5,225,1359,-1,0.65,0.35,
5,226,2219,-1,0.8,0.65,
5,227,1546,1,0.35,0.65,
5,228,1451,1,0,0.95,
5,229,1997,1,0.95,0.8,
5,230,1996,-1,0.65,0.35,
5,231,1720,1,0,1.4,
5,232,1503,-1,0.5,0.5,
5,233,2481,1,0.8,0.8,
5,234,1808,1,0.8,1.25,
5,235,1768,1,0.5,1.1,
5,236,2272,1,0.35,0.95,
5,237,1588,-1,1.1,0.35,
5,238,1521,1,0.95,1.1,
5,239,1654,1,0.8,1.1,
6,0,3077,1,0.65,0.65,
6,1,2443,-1,0.5,1.4,
6,2,3851,-1,0.65,0.35,
6,3,1674,-1,0,0.95,
6,4,4085,1,0.8,0.8,
6,5,4310,1,0.65,0.65,
6,6,2851,-1,0.95,0.5,
6,7,6580,1,0.65,0.95,
6,8,2112,-1,0.95,0.8,
6,9,3459,1,0.95,0.95,
6,10,2083,1,0.95,0,
6,11,3810,-1,0.8,0.95,
6,12,2582,-1,0.8,0.95,
6,13,1965,1,0.65,0.8,
6,14,2053,1,0.95,1.4,
6,15,2075,-1,0.65,0.65,
6,16,2327,-1,0.95,0.95,
6,17,7299,-1,0.8,0.8,
6,18,3499,1,0.65,0.8,
6,19,2058,-1,0.35,1.25,
6,20,2343,-1,0.8,0.65,
6,21,3332,1,0.95,0.8,
6,22,5118,1,0.95,0.65,
6,23,5818,1,1.1,0.65,
6,24,5480,1,0.65,0.95,
6,25,2262,1,1.4,0.65,
6,26,1885,1,0.8,0.5,
6,27,4647,1,0.5,0.8,
6,28,2795,1,0,0.8,
6,29,2391,-1,0.8,0.8,
6,30,2132,-1,0.65,0.8,
6,31,1753,-1,0.65,0.95,
6,32,1565,1,0.95,0.8,
6,33,5829,-1,0.8,0.95,
6,34,1473,1,0.95,0.95,
6,35,2756,-1,0.95,1.1,
6,36,9179,1,0.65,0.95,
6,37,4856,1,0.95,0.8,
6,38,4454,1,0.65,0.65,
6,39,3803,-1,0.65,0.95,
6,40,1928,-1,0.95,1.4,
6,41,4194,1,0.65,0.8,
6,42,2641,1,0.8,0.8,
6,43,2684,-1,0.95,0.65,
6,44,1506,1,0.65,0.95,
6,45,2147,-1,1.4,0.65,
6,46,2007,-1,0.95,0,
6,47,1439,-1,0.95,0.8,
6,48,2377,-1,0.65,0.95,
6,49,1529,-1,0.8,0.5,
6,50,1766,-1,0.65,0.65,
6,51,4347,-1,0.65,0.65,
6,52,1309,-1,0.95,0.95,
6,53,1520,-1,0.95,0.8,
6,54,2229,1,0.65,0.65,
6,55,4567,1,0.95,0.5,
6,56,1624,1,0.95,0.95,
6,57,2488,1,0.95,1.1,
6,58,1411,-1,0.65,0.8,
6,59,1473,1,0,0.95,
6,60,2715,1,0.65,0.35,
6,61,1698,-1,0.65,0.95,
6,62,1593,-1,0.95,0.95,
6,63,2855,1,0.8,0.8,
6,64,5320,-1,0.5,0.8,
6,65,1752,-1,0.65,0.8,
6,66,1509,1,0.95,0.8,
6,67,1701,1,0.5,1.4,
6,68,1350,1,0.95,0.8,
6,69,1891,-1,0.65,0.95,
6,70,2255,-1,1.1,0.65,
6,71,9549,-1,0.8,0.8,
6,72,759,1,0.65,0.65,
6,73,1619,1,0.8,0.95,
6,74,1815,1,0.35,1.25,
6,75,2159,-1,0,0.8,
6,76,1611,1,0.8,0.95,
6,77,4682,1,0.8,0.95,
6,78,1289,1,0.8,0.65,
6,79,2833,1,0.65,0.95,
6,80,3112,1,0.65,0.65,
6,81,1836,1,0.5,0.95,
6,82,2887,-1,1.55,1.25,
6,83,1906,1,1.1,0.95,
6,84,2401,-1,0.65,0.95,
6,85,3320,1,0.95,0.65,
6,86,1803,-1,0,0.5,
6,87,3124,1,0.65,0.65,
6,88,2448,-1,0.65,1.4,
6,89,2020,-1,0.8,0.5,
6,90,2198,-1,0.8,0.8,
6,91,4057,-1,0.35,0.65,
6,92,1457,-1,0,0.5,
6,93,2901,-1,1.4,0.95,
6,94,1649,-1,0.8,0.95,
6,95,1330,1,0.95,0.65,
6,96,3243,1,0.65,0.8,
6,97,3476,1,0.95,0.8,
6,98,4326,1,0.95,0.95,
6,99,1492,1,0.65,0.95,
6,100,3291,1,0.95,0.35,
6,101,1686,-1,0.8,0.65,
6,102,1471,1,1.4,0.5,
6,103,1613,-1,0.8,0.95,
6,104,1615,1,0.35,0.65,
6,105,2575,1,0.95,0.8,
6,106,1202,-1,0.8,0.95,
6,107,969,1,0.8,0.95,
6,108,1993,1,0.8,0.8,
6,109,3277,-1,0.65,1.55,
6,110,1123,1,0.95,0,
6,111,3412,1,0.95,0.65,
6,112,1591,1,0.95,0,
6,113,1052,-1,0,0.65,
6,114,470,1,0.95,0.65,
6,115,3046,1,0.95,0.8,
6,116,5454,-1,0.95,1.4,
6,117,1520,1,0.95,0.95,
6,118,1898,-1,0.95,0.95,
6,119,2551,1,0.8,0.65,
6,120,1394,1,0,0.5,
6,121,1906,1,0.8,0.65,
6,122,2107,-1,0.95,0.8,
6,123,3027,1,0.95,1.4,
6,124,2600,1,0.95,0.8,
6,125,1417,-1,0.95,0.65,
6,126,2295,1,0.65,0.95,
6,127,3582,-1,0.65,0.95,
6,128,1190,1,0.8,0.95,
6,129,1701,-1,0.65,1.4,
6,130,3387,-1,0.65,0.65,
6,131,1950,-1,0.95,0.95,
6,132,4977,-1,0.95,0.8,
6,133,1650,-1,0.95,0.35,
6,134,1315,1,0.8,0.95,
6,135,2396,-1,0.8,0.8,
6,136,2956,-1,0.95,0.65,
6,137,2401,-1,0.8,0.8,
6,138,1843,1,1.4,0.95,
6,139,971,-1,0,0.65,
6,140,2911,1,0.8,0.5,
6,141,1357,-1,0.8,0.95,
6,142,2067,-1,0.65,0.65,
6,143,2047,-1,1.1,0.95,
6,144,3643,-1,0.5,0.95,
6,145,2231,-1,0.8,0.65,
6,146,2366,1,1.55,1.25,
6,147,2632,1,0.8,0.95,
6,148,1651,-1,0.65,0.8,
6,149,1586,-1,0.35,0.65,
6,150,1296,-1,0.95,0.95,
6,151,1235,1,0,0.5,
6,152,1516,1,0.65,1.55,
6,153,2250,-1,0.95,0.65,
6,154,2296,1,0.35,0.65,
6,155,1628,-1,0.95,0,
6,156,2304,-1,0.95,0.65,
6,157,1846,1,0.95,0.95,
6,158,1605,-1,0.95,0,
6,159,1271,-1,1.4,0.5,
6,160,1843,1,0.95,0.8,
6,161,1358,1,1.25,1.55,
6,162,2228,1,0.8,0.95,
6,163,1717,-1,0.65,0.8,
6,164,1157,1,1.25,0.35,
6,165,1250,-1,0,0.95,
6,166,1283,1,0.65,0,
6,167,1389,1,0.95,0,
6,168,1805,-1,0.8,0.95,
6,169,1956,-1,0.5,0.8,
6,170,2259,-1,0.65,0.65,
6,171,1560,-1,0.35,0.95,
6,172,974,-1,0.95,0.95,
6,173,1270,1,0.95,0.95,
6,174,1251,-1,0,0.95,
6,175,1576,-1,0.65,1.1,
6,176,1882,1,0.8,0.65,
6,177,2316,1,1.4,0.95,
6,178,884,-1,0,0.95,
6,179,1595,-1,0.95,0.65,
6,180,2383,-1,0.95,0.65,
6,181,1810,1,0.8,0.8,
6,182,1526,-1,0.95,0.95,
6,183,2161,1,0.8,0.95,
6,184,1758,-1,0.65,0.65,
6,185,1407,-1,0.65,0.65,
6,186,1908,1,0.95,0.8,
6,187,3460,-1,0.65,0.95,
6,188,1847,1,0.5,0,
6,189,2685,-1,0.95,0.95,
6,190,1692,1,0.65,0.35,
6,191,1254,1,0.5,0,
6,192,1621,-1,0.95,0.65,
6,193,1366,-1,0.95,0.65,
6,194,1707,-1,0.8,0,
6,195,1089,1,0.95,0.8,
6,196,1351,-1,0.8,0.65,
6,197,2537,-1,0.65,0.65,
6,198,1559,1,1.55,0.65,
6,199,1358,-1,0.65,0.95,
6,200,2963,-1,0.95,0.8,
6,201,2341,1,0.65,0.65,
6,202,2313,1,0.8,0,
6,203,1339,1,0.95,0.65,
6,204,1323,-1,1.25,1.55,
6,205,2284,1,0.95,0.65,
6,206,1511,-1,1.4,0.95,
6,207,1688,1,0.8,0.95,
6,208,848,1,0.95,0.95,
6,209,2451,1,0.8,0.95,
6,210,1051,-1,0.5,0,
6,211,1537,1,0.35,0.95,
6,212,1026,-1,0.5,0,
6,213,1821,1,0.65,1.1,
6,214,1019,-1,0.65,0,
6,215,1082,1,0.95,0.95,
6,216,2864,1,0.95,0.65,
6,217,2367,1,0.65,0.95,
6,218,1091,-1,0.65,0.35,
6,219,1598,1,0.8,0.65,
6,220,1885,1,0.65,0.65,
6,221,1530,-1,1.25,0.35,
6,222,1104,-1,0.95,0.8,
6,223,1021,-1,0.95,0.95,
6,224,1850,-1,0.8,0.95,
6,225,1320,1,0.65,0.65,
6,226,904,1,0,0.95,
6,227,1339,1,0.65,0.65,
6,228,1143,-1,0.8,0.8,
6,229,1422,-1,0.95,0,
6,230,1125,1,0.95,0.95,
6,231,1384,-1,0.95,0.8,
6,232,1261,1,0,0.95,
6,233,1501,-1,1.55,0.65,
6,234,1148,1,0.65,0.95,
6,235,1303,1,0.95,0.65,
6,236,1263,1,0.5,0.8,
6,237,1326,1,0.8,0.65,
6,238,6668,-1,0.65,0.8,
6,239,1010,1,0,0.95,
7,0,2562,-1,0.95,0.95,
7,1,3709,-1,2.45,1.1,
7,2,3707,-1,1.1,1.1,
7,3,1775,-1,1.4,0.95,
7,4,2242,-1,1.1,0.35,
7,5,7777,1,0.95,2,
7,6,3068,1,1.1,0.95,
7,7,4508,-1,1.55,1.1,
7,8,3300,1,0.95,1.55,
7,9,1901,1,0.95,1.1,
7,10,2798,1,1.55,1.1,
7,11,6463,1,0.5,0.95,
7,12,2423,1,0.95,2.3,
7,13,3995,-1,2.45,2,
7,14,4172,1,0.95,1.1,
7,15,2646,-1,1.1,0.65,
7,16,3748,1,0.35,0.5,
7,17,3971,-1,0.95,1.4,
7,18,4791,-1,1.25,0.5,
7,19,6822,1,1.55,1.85,
7,20,7438,1,1.1,1.1,
7,21,4818,-1,2,1.25,
7,22,2526,-1,2,0.35,
7,23,4766,-1,2,1.4,
7,24,2008,1,2,1.1,
7,25,2589,1,0.5,2.45,
7,26,2672,1,2,2.45,
7,27,3508,1,0.35,1.1,
7,28,2744,-1,1.4,1.1,
7,29,6724,-1,1.1,1.25,
7,30,4206,1,0.5,0.95,
7,31,3373,1,2,0.95,
7,32,2463,-1,0.95,0.95,
7,33,3506,1,1.1,0.95,
7,34,2164,1,1.1,2.45,
7,35,2248,-1,0.95,1.1,
7,36,1490,1,1.25,1.1,
7,37,2130,1,0.95,1.25,
7,38,1253,-1,1.1,1.1,
7,39,3991,1,0.95,1.1,
7,40,1836,-1,1.1,0.95,
7,41,4858,-1,0.5,0.95,
7,42,2161,-1,1.55,1.1,
7,43,3118,1,1.1,0.35,
7,44,3729,-1,0.35,0.5,
7,45,4798,-1,1.1,2.45,
7,46,2374,1,1.4,1.1,
7,47,1682,-1,1.1,0.95,
7,48,2076,1,1.1,1.1,
7,49,2728,1,1.25,0.5,
7,50,4007,-1,0.95,1.1,
7,51,1498,-1,0.95,1.1,
7,52,1177,-1,1.25,1.1,
7,53,1643,1,1.4,0.95,
7,54,4121,1,2,1.1,
7,55,3232,-1,2,0.95,
7,56,1724,1,1.1,1.1,
7,57,3165,1,2,0.35,
7,58,3505,-1,0.5,2.45,
7,59,3333,-1,0.95,1.1,
7,60,3004,-1,1.55,1.85,
7,61,4601,1,1.1,0.65,
7,62,4246,1,2,1.4,
7,63,3601,-1,0.5,0.95,
7,64,5343,-1,0.95,2,
7,65,2599,1,2,1.25,
7,66,3480,1,1.55,1.1,
7,67,5000,-1,0.35,1.1,
7,68,2194,1,0.95,1.4,
7,69,5391,1,0.95,0.95,
7,70,3898,1,0.95,0.95,
7,71,2451,1,2.45,1.1,
7,72,5186,1,2.45,2,
7,73,2889,-1,0.95,1.1,
7,74,2113,1,1.1,1.25,
7,75,2534,-1,0.95,2.3,
7,76,5470,-1,1.1,1.1,
7,77,2991,-1,0.95,1.25,
7,78,2434,1,0.95,1.55,
7,79,2875,-1,2,2.45,
7,80,2772,-1,2.45,1.1,
7,81,2700,1,0.5,1.25,
7,82,2661,-1,1.55,0.95,
7,83,1749,1,0.95,1.4,
7,84,2555,-1,1.1,0.95,
7,85,2085,-1,1.1,1.25,
7,86,2682,-1,1.4,2,
7,87,3236,1,1.1,1.55,
7,88,2828,1,0.95,0.95,
7,89,2501,-1,2,0.5,
7,90,2631,-1,1.1,0.95,
7,91,4864,1,1.1,0.95,
7,92,1410,-1,1.1,1.1,
7,93,1475,1,0.8,1.1,
7,94,4804,-1,2,1.1,
7,95,1677,1,1.1,1.1,
7,96,2396,1,1.1,2.3,
7,97,2395,-1,1.1,0.95,
7,98,2022,1,0.35,1.1,
7,99,1751,1,0.35,2,
7,100,2889,-1,2,0.8,
7,101,1270,-1,1.25,2,
7,102,4447,-1,0.95,0.65,
7,103,2915,-1,1.25,0.95,
7,104,9013,1,1.55,1.4,
7,105,1853,1,1.1,2.45,
7,106,3567,1,1.1,1.85,
7,107,4428,-1,2.45,2,
7,108,3230,1,1.1,1.55,
7,109,4884,-1,1.1,2,
7,110,2585,1,1.1,1.1,
7,111,3986,1,1.1,1.1,
7,112,2925,-1,0.5,0.35,
7,113,2860,-1,1.55,0.65,
7,114,2888,-1,1.4,0.65,
7,115,3153,-1,0.95,1.1,
7,116,3830,1,1.4,0.95,
7,117,2264,1,0.65,1.1,
7,118,3281,1,0.95,2,
7,119,3370,-1,0.95,0.5,
7,120,2465,-1,0.8,1.1,
7,121,2565,-1,1.1,1.55,
7,122,3585,-1,0.35,1.1,
7,123,3663,1,1.55,0.65,
7,124,2049,1,1.1,1.1,
7,125,4382,1,2.45,1.1,
7,126,2886,-1,1.1,1.1,
7,127,3060,-1,1.1,2,
7,128,2653,-1,0.95,0.95,
7,129,4411,-1,1.1,0.95,
7,130,3190,1,1.1,1.25,
7,131,2469,-1,1.4,0.95,
7,132,2123,-1,1.1,2.3,
7,133,2445,-1,1.1,0.95,
7,134,1773,1,0.5,0.35,
7,135,3000,-1,0.5,1.25,
7,136,2686,-1,1.1,1.85,
7,137,2367,-1,1.4,2,
7,138,1749,1,1.25,0.95,
7,139,3833,1,2.45,2,
7,140,4784,-1,1.55,1.4,
7,141,1730,1,1.55,0.95,
7,142,1077,-1,0.95,1.4,
7,143,3814,-1,1.1,1.55,
7,144,3089,1,2,1.1,
7,145,1654,1,1.25,2,
7,146,2117,-1,1.1,1.1,
7,147,2244,-1,0.35,2,
7,148,3364,1,1.4,0.65,
7,149,1949,1,0.95,1.1,
7,150,2978,-1,1.1,1.1,
7,151,1889,1,0.95,0.5,
7,152,2417,-1,0.65,1.1,
7,153,1857,1,1.1,0.95,
7,154,1438,1,1.1,0.95,
7,155,5863,1,0.95,2,
7,156,1513,1,2,0.8,
7,157,2101,1,0.95,0.65,
7,158,2523,-1,1.1,2.45,
7,159,2697,1,2,0.5,
7,160,2827,1,1.1,1.4,
7,161,3953,1,2,2.45,
7,162,6634,-1,1.25,1.1,
7,163,3319,1,1.1,2.45,
7,164,1949,-1,1.1,0.95,
7,165,2403,-1,1.55,1.1,
7,166,1743,1,0.95,1.1,
7,167,2682,1,0.65,0.95,
7,168,2349,-1,1.1,1.1,
7,169,2716,1,1.55,0.95,
7,170,6127,-1,1.85,1.1,
7,171,2647,-1,1.1,1.1,
7,172,3192,1,0.95,0.95,
7,173,2950,-1,2.45,0.5,
7,174,1723,1,2,1.25,
7,175,2383,-1,0.95,1.1,
7,176,1962,1,0.8,2,
7,177,3720,-1,0.95,1.55,
7,178,3087,-1,1.85,1.55,
7,179,1255,-1,2.3,1.1,
7,180,3736,1,0.95,0.5,
7,181,1760,-1,1.1,0.95,
7,182,1405,-1,1.1,0.8,
7,183,2316,-1,0.95,1.1,
7,184,1680,1,1.1,0.95,
7,185,3267,1,1.25,2,
7,186,3536,1,1.4,1.55,
7,187,1581,1,1.1,1.1,
7,188,1304,1,0.95,1.1,
7,189,2650,1,0.65,1.4,
7,190,1761,1,1.1,2,
7,191,2423,1,2,0.95,
7,192,1690,1,0.65,1.55,
7,193,2103,-1,2.45,1.1,
7,194,1738,1,1.1,1.1,
7,195,3921,-1,1.1,0.35,
7,196,2330,-1,2.3,0.95,
7,197,1808,1,0.5,2,
7,198,1669,1,1.1,1.1,
7,199,2295,-1,1.1,1.55,
7,200,3219,-1,0.95,1.55,
7,201,2174,-1,1.1,0.95,
7,202,2025,-1,0.95,1.1,
7,203,1955,-1,0.8,2,
7,204,2076,1,2.45,0.5,
7,205,1642,1,1.1,1.55,
7,206,2148,1,1.85,1.1,
7,207,2053,1,1.4,1.55,
7,208,1541,1,2.3,0.95,
7,209,2534,-1,2,2.45,
7,210,1899,-1,1.1,1.1,
7,211,2392,-1,0.65,1.4,
7,212,3847,1,1.1,0.95,
7,213,2619,-1,0.65,1.55,
7,214,4180,1,1.55,1.1,
7,215,1936,1,1.85,1.55,
7,216,4482,1,1.1,0.8,
7,217,1610,1,2.3,1.1,
7,218,2171,-1,1.1,2,
7,219,1962,-1,0.95,0.95,
7,220,2607,1,0.95,0.5,
7,221,2582,-1,0.95,1.1,
7,222,2051,-1,2,0.95,
7,223,1908,1,0.95,1.1,
7,224,1922,1,1.1,1.1,
7,225,2140,-1,1.55,0.95,
7,226,3448,1,1.1,0.35,
7,227,2372,1,0.95,1.1,
7,228,2207,-1,1.1,1.1,
7,229,2572,-1,2,1.25,
7,230,1473,-1,1.1,1.1,
7,231,4593,-1,0.5,2,
7,232,1610,-1,1.1,1.4,
7,233,3948,1,1.1,0.95,
7,234,3397,1,1.1,1.1,
7,235,2886,-1,0.65,0.95,
7,236,2366,-1,1.25,2,
7,237,1895,-1,1.25,1.1,
7,238,5131,-1,1.1,2.45,
7,239,3043,1,2.45,1.1,
8,0,6280,-1,1.85,1.7,
8,1,3262,-1,1.25,1.25,
8,2,2781,1,2.75,1.25,
8,3,4808,1,2,0.8,
8,4,3763,-1,1.4,2,
8,5,2120,1,0.8,1.85,
8,6,4439,1,0.8,1.25,
8,7,2881,1,1.4,2.15,
8,8,8834,1,2.3,1.85,
8,9,2776,-1,2,1.25,
8,10,1966,1,1.25,2,
8,11,2514,-1,0.95,2.45,
8,12,10046,1,1.7,1.7,
8,13,4799,1,1.7,2.3,
8,14,2205,-1,1.7,0.95,
8,15,1809,1,2.15,2,
8,16,5917,1,2.15,1.85,
8,17,5962,1,1.1,1.25,
8,18,3225,-1,1.4,1.25,
8,19,3906,-1,1.1,2,
8,20,9244,1,2.75,2,
8,21,3254,-1,0.8,0.8,
8,22,7203,1,2,0.95,
8,23,3248,-1,1.4,1.4,
8,24,9608,1,2.3,1.25,
8,25,2238,-1,2.6,0.95,
8,26,2748,-1,2.15,2,
8,27,3612,1,1.7,0.95,
8,28,2269,-1,2.45,0.95,
8,29,1844,-1,1.85,2,
8,30,3228,1,1.25,0.95,
8,31,2352,1,2,2.3,
8,32,6776,-1,2.45,2,
8,33,2230,1,1.85,2.45,
8,34,2359,-1,1.25,2.15,
8,35,1954,1,1.85,1.1,
8,36,3237,1,0.95,2.15,
8,37,1781,-1,1.85,1.25,
8,38,4639,1,2.3,2,
8,39,2979,-1,1.7,2,
8,40,2507,-1,1.7,2.15,
8,41,2134,-1,2,1.1,
8,42,3104,1,2,2.15,
8,43,2115,-1,0.95,2.45,
8,44,2664,-1,1.85,2.45,
8,45,3493,-1,1.1,0.95,
8,46,2265,-1,1.85,1.25,
8,47,1639,1,2.6,2.6,
8,48,1956,1,1.25,1.25,
8,49,3777,-1,1.1,1.85,
8,50,2185,1,1.7,1.85,
8,51,1818,1,2.3,0.8,
8,52,2958,1,2,1.4,
8,53,3672,1,1.85,1.4,
8,54,3957,1,2,0.95,
8,55,1934,-1,0.8,0.95,
8,56,2024,1,1.25,2.75,
8,57,5394,1,1.7,1.7,
8,58,2211,-1,2,2.3,
8,59,6702,-1,0.8,0.95,
8,60,1694,1,2.3,2,
8,61,2585,1,1.25,1.1,
8,62,2005,-1,1.25,2,
8,63,2527,-1,2.15,1.4,
8,64,2909,1,0.95,1.7,
8,65,6158,1,2,2.75,
8,66,5470,-1,0.95,1.7,
8,67,3018,1,0.8,2,
8,68,2168,-1,2.15,1.25,
8,69,1622,-1,1.25,1.85,
8,70,2725,-1,2,2.15,
8,71,3982,1,0.95,1.4,
8,72,2130,-1,2.15,0.95,
8,73,6062,1,1.85,2.3,
8,74,2597,-1,2.6,0.8,
8,75,3046,1,2.15,1.85,
8,76,2818,1,2,2.15,
8,77,4829,-1,1.25,2.45,
8,78,2374,-1,0.8,2.3,
8,79,10790,1,1.25,1.4,
8,80,1878,1,2,2.3,
8,81,1993,-1,1.25,1.25,
8,82,4066,1,1.85,2.45,
8,83,1666,-1,1.25,1.1,
8,84,2165,1,0.8,0.95,
8,85,1595,1,1.7,2.15,
8,86,1735,-1,1.1,1.85,
8,87,1822,1,0.95,2.45,
8,88,2027,-1,2,2.75,
8,89,2905,-1,1.25,2.45,
8,90,1535,-1,2,2.15,
8,91,1528,-1,2,1.4,
8,92,1831,1,0.95,1.7,
8,93,2177,1,1.25,2,
8,94,2255,-1,2.15,1.85,
8,95,1615,1,0.8,2.3,
8,96,2366,1,2.15,1.25,
8,97,1262,-1,2,2.15,
8,98,1535,1,2,1.1,
8,99,1314,1,1.25,1.85,
8,100,4734,-1,0.95,1.4,
8,101,4219,-1,1.7,1.7,
8,102,2133,-1,1.85,2.3,
8,103,3283,1,1.25,1.4,
8,104,1390,1,2,2.15,
8,105,1494,1,1.85,1.25,
8,106,1043,-1,2.6,2.6,
8,107,1583,-1,1.25,2.75,
8,108,1951,1,2.15,0.95,
8,109,1185,-1,0.8,2,
8,110,1984,-1,2,0.95,
8,111,1339,-1,2.3,2,
8,112,1286,-1,2.3,0.8,
8,113,1944,-1,1.7,1.85,
8,114,1853,1,0.8,0.95,
8,115,2109,-1,0.95,1.7,
8,116,1583,1,2.6,0.8,
8,117,1535,1,1.1,0.95,
8,118,1668,1,2.15,1.4,
8,119,1780,-1,1.85,1.4,
8,120,2493,-1,2.45,0.95,
8,121,3783,-1,2.15,2,
8,122,2532,1,2,1.25,
8,123,3582,1,1.85,2.15,
8,124,1617,-1,1.4,1.4,
8,125,2199,-1,2.45,1.25,
8,126,4617,-1,1.85,2.15,
8,127,1591,1,2.15,1.7,
8,128,1837,1,0.95,2.15,
8,129,3655,-1,2,1.85,
8,130,2680,-1,0.8,2.3,
8,131,2675,1,0.95,2,
8,132,1895,1,2.45,1.85,
8,133,3099,-1,2,1.7,
8,134,5649,-1,1.25,1.25,
8,135,1249,1,2.3,0.8,
8,136,1810,-1,2.6,2.6,
8,137,2423,-1,2.45,1.85,
8,138,1467,1,2.3,2,
8,139,1796,1,1.25,0.8,
8,140,2933,1,0.95,1.1,
8,141,1836,1,1.4,2,
8,142,5354,1,1.25,2.3,
8,143,3919,1,2,2.3,
8,144,1549,-1,1.4,1.85,
8,145,3875,1,2.3,1.7,
8,146,2389,-1,1.4,0.95,
8,147,2133,-1,0.95,2,
8,148,2735,-1,1.25,1.25,
8,149,1089,-1,2.15,0.95,
8,150,1859,1,0.8,2.6,
8,151,2137,1,0.95,0.8,
8,152,1893,1,0.95,1.25,
8,153,2049,-1,0.8,0.8,
8,154,1959,1,1.25,1.85,
8,155,2156,-1,0.95,2.6,
8,156,3751,-1,2,2.45,
8,157,3011,1,0.95,0.8,
8,158,3907,1,2,1.4,
8,159,3688,1,1.85,0.8,
8,160,2931,1,1.85,2.15,
8,161,2067,-1,1.85,0.8,
8,162,1560,1,0.8,0.8,
8,163,2001,-1,2.3,2,
8,164,1441,1,2.45,0.95,
8,165,1422,1,2,1.85,
8,166,3294,-1,0.95,0.8,
8,167,1937,-1,2.15,0.95,
8,168,1752,1,0.8,2.3,
8,169,1688,-1,2.3,0.8,
8,170,1085,1,0.95,2,
8,171,1381,1,2,1.7,
8,172,1506,-1,2.45,1.85,
8,173,1745,-1,0.8,2.6,
8,174,2935,-1,1.25,2.3,
8,175,1693,-1,2.15,1.7,
8,176,9412,-1,2.45,1.25,
8,177,2314,-1,1.85,2.15,
8,178,1464,1,2.6,2.6,
8,179,2187,1,2,2.45,
8,180,1468,-1,0.95,0.8,
8,181,1348,1,1.25,1.25,
8,182,1945,1,1.4,1.4,
8,183,1382,1,0.95,2.6,
8,184,1886,-1,1.25,0.8,
8,185,3569,-1,2,2.3,
8,186,3349,-1,0.95,2.15,
8,187,1595,1,1.4,1.85,
8,188,1380,1,1.25,1.25,
8,189,1668,1,1.4,2,
8,190,2449,-1,0.95,1.25,
8,191,1612,1,2.15,2,
8,192,1495,-1,2.45,1.85,
8,193,1574,1,1.4,0.95,
8,194,2403,-1,0.95,1.1,
8,195,1463,-1,0.95,2,
8,196,2565,1,2,1.4,
8,197,1537,-1,2.3,1.7,
8,198,2100,-1,2,1.25,
8,199,1383,-1,1.25,1.85,
8,200,2351,-1,2.3,1.85,
8,201,1648,1,0.8,0.8,
8,202,1913,1,2.45,0.95,
8,203,1880,-1,1.7,0.95,
8,204,8454,1,1.4,2,
8,205,1583,1,1.1,2,
8,206,3631,1,2.45,2,
8,207,2197,-1,2,0.95,
8,208,2222,-1,1.25,2,
8,209,1789,1,0.95,2.45,
8,210,3738,-1,0.8,1.85,
8,211,2183,1,2.6,0.95,
8,212,2075,-1,1.25,0.95,
8,213,1883,-1,2,2.3,
8,214,1403,1,1.85,1.25,
8,215,2909,-1,0.95,2.15,
8,216,1189,-1,2.15,2,
8,217,1220,1,1.25,1.25,
8,218,1507,1,1.25,2.15,
8,219,1428,1,1.85,2,
8,220,1689,1,1.7,2,
8,221,2218,-1,1.7,2.3,
8,222,4202,1,1.85,1.1,
8,223,2067,-1,1.85,1.7,
8,224,7225,-1,2.3,2,
8,225,2522,-1,2.3,1.25,
8,226,2408,-1,0.8,1.25,
8,227,1628,1,1.4,1.4,
8,228,2775,-1,1.1,1.25,
8,229,2350,-1,2.75,2,
8,230,1686,1,1.7,0.95,
8,231,3420,-1,2.15,1.85,
8,232,6061,-1,1.85,2.45,
8,233,2435,-1,1.7,1.7,
8,234,3465,1,1.4,2.15,
8,235,2452,-1,2.75,1.25,
8,236,1619,1,2,1.25,
8,237,4774,-1,2,0.8,
8,238,4797,1,1.4,1.25,
8,239,2442,1,2.15,2,
9,0,4076,1,0.5,0.65,
9,1,7342,-1,0.95,0.8,
9,2,7926,1,1.1,1.55,
9,3,7862,-1,1.1,0.5,
9,4,9211,-1,1.4,0.65,
9,5,6437,-1,0.65,0.5,
9,6,8887,1,0.8,0.8,
9,7,7906,-1,0.35,0.2,
9,8,7682,-1,0.65,0.5,
9,9,12700,1,0.5,0.35,
9,10,10860,-1,1.55,1.1,
9,11,5201,-1,1.1,0.5,
9,12,6160,-1,0.5,0.65,
9,13,5265,1,0.35,0.8,
9,14,7706,-1,1.4,0.8,
9,15,7950,-1,0.95,0.65,
9,16,3178,1,0.2,0.8,
9,17,5989,1,0.8,1.4,
9,18,3409,1,0.65,0.65,
9,19,2703,1,0.65,0.95,
9,20,6270,1,1.4,1.55,
9,21,3970,-1,0.5,0.35,
9,22,8677,1,0.65,0.8,
9,23,5384,-1,1.4,0.65,
9,24,4131,-1,1.55,0.8,
9,25,7368,1,0.5,0.95,
9,26,3027,-1,0.95,0.35,
9,27,1947,-1,0.8,0.5,
9,28,3251,-1,0.8,0.35,
9,29,5353,1,0.65,1.1,
9,30,2235,1,0.5,1.55,
9,31,3470,-1,1.25,0.95,
9,32,6025,-1,1.55,0.35,
9,33,1555,-1,0.8,0.65,
9,34,4056,1,0.8,1.4,
9,35,2030,1,0.05,0.8,
9,36,3565,1,0.65,0.8,
9,37,1937,1,0.35,0.5,
9,38,4421,1,0.65,1.25,
9,39,3242,1,0.35,0.65,
9,40,3814,1,1.1,0.5,
9,41,3772,-1,0.5,0.35,
9,42,2437,1,0.65,0.5,
9,43,4887,-1,0.5,0.35,
9,44,2871,1,0.95,0.65,
9,45,3340,1,0.35,0.2,
9,46,2786,-1,0.35,0.65,
9,47,2839,-1,0.8,1.4,
9,48,1985,-1,0.5,1.55,
9,49,2034,-1,0.65,0.95,
9,50,2185,-1,0.65,1.25,
9,51,5349,-1,0.5,0.65,
9,52,2601,-1,0.65,1.1,
9,53,3060,-1,1.1,1.55,
9,54,3909,1,1.4,0.65,
9,55,3604,1,1.4,0.65,
9,56,3990,1,0.65,0.8,
9,57,2063,1,1.1,0.5,
9,58,5749,-1,0.65,0.8,
9,59,2127,1,0.8,0.65,
9,60,1975,1,0.8,0.5,
9,61,5517,1,1.55,1.1,
9,62,1876,1,1.25,0.95,
9,63,1907,-1,0.2,0.8,
9,64,1914,1,0.95,0.35,
9,65,1945,-1,1.4,1.55,
9,66,1899,1,0.8,0.35,
9,67,2048,-1,0.8,1.4,
9,68,1536,-1,0.05,0.8,
9,69,1781,1,1.55,0.35,
9,70,1413,1,0.65,0.5,
9,71,2923,-1,0.5,0.95,
9,72,6754,1,0.95,0.8,
9,73,1704,-1,0.35,0.5,
9,74,5374,1,1.4,0.8,
9,75,5338,1,1.55,0.8,
9,76,5539,-1,0.8,0.8,
9,77,1817,-1,0.35,0.8,
9,78,2192,-1,0.5,0.65,
9,79,2392,-1,0.65,0.65,
9,80,1697,1,0.35,1.55,
9,81,1908,-1,0.65,0.65,
9,82,1797,-1,0.8,0.5,
9,83,2048,-1,0.8,0.5,
9,84,1799,1,0.65,1.4,
9,85,2018,-1,1.25,0.65,
9,86,2057,-1,1.1,0.95,
9,87,2199,1,0.2,0.35,
9,88,5826,1,0.5,0.65,
9,89,4129,-1,0.65,0.65,
9,90,1566,1,0.65,1.4,
9,91,2613,1,0.65,0.8,
9,92,1468,1,0.2,1.55,
9,93,1699,-1,1.55,0.65,
9,94,1608,1,0.5,0.65,
9,95,1556,-1,0.8,0.2,
9,96,1669,1,0.05,0.35,
9,97,1331,1,0.95,1.25,
9,98,3185,-1,0.8,0.05,
9,99,1955,-1,1.1,0.65,
9,100,2036,1,0.8,1.4,
9,101,1657,-1,0.8,0.65,
9,102,1579,1,0.5,1.1,
9,103,2195,1,1.1,1.55,
9,104,1662,1,0.35,1.55,
9,105,1752,-1,0.95,0.8,
9,106,1536,1,0.35,0.8,
9,107,5328,1,0.8,0.95,
9,108,6890,-1,0.65,0.95,
9,109,4058,-1,1.4,0.8,
9,110,2141,-1,0.65,0.35,
9,111,1434,-1,0.8,0.35,
9,112,3682,-1,0.65,0.5,
9,113,886,1,0.8,0.95,
9,114,1430,-1,0.65,0.2,
9,115,2134,-1,0.95,0.65,
9,116,1446,1,0.35,1.4,
9,117,1959,-1,1.1,0.8,
9,118,3418,-1,0.35,0.5,
9,119,3483,-1,1.55,1.55,
9,120,3952,1,1.1,1.55,
9,121,1624,-1,0.95,0.8,
9,122,1675,-1,0.95,0.65,
9,123,1420,1,0.35,1.55,
9,124,2088,-1,0.65,0.35,
9,125,1738,-1,0.8,0.2,
9,126,2548,-1,1.55,1.55,
9,127,3065,-1,1.1,0.95,
9,128,1321,1,0.65,0.8,
9,129,1476,1,0.35,1.55,
9,130,1372,1,0.5,0.65,
9,131,2000,-1,1.25,0.65,
9,132,1298,-1,0.65,0.2,
9,133,1903,-1,1.4,0.8,
9,134,1905,1,0.35,1.4,
9,135,1804,1,0.8,0.95,
9,136,1796,-1,0.8,0.5,
9,137,1958,1,0.35,0.8,
9,138,1995,-1,0.65,0.65,
9,139,1938,-1,0.35,0.5,
9,140,1798,1,0.5,1.1,
9,141,1395,1,0.05,0.35,
9,142,1415,1,0.2,1.55,
9,143,2794,1,0.8,1.4,
9,144,677,-1,0.5,0.65,
9,145,2103,1,0.65,1.4,
9,146,1777,-1,0.8,0.5,
9,147,6047,-1,0.65,0.5,
9,148,2316,1,0.65,0.95,
9,149,2108,-1,1.1,0.8,
9,150,2569,-1,1.1,0.65,
9,151,2056,-1,0.8,0.65,
9,152,1548,1,0.95,1.25,
9,153,1501,1,0.2,0.35,
9,154,1038,-1,0.8,0.35,
9,155,1620,1,0.65,1.4,
9,156,2522,-1,0.65,0.65,
9,157,1519,-1,0.8,0.05,
9,158,4272,1,0.8,0.95,
9,159,1132,-1,1.55,0.65,
9,160,1629,1,0.8,0.95,
9,161,1546,1,0.5,1.1,
9,162,1854,1,0.65,0.95,
9,163,5188,1,0.8,0.65,
9,164,1442,-1,1.55,0.5,
9,165,1680,-1,1.55,1.4,
9,166,1745,-1,0.35,0.05,
9,167,1625,1,0.8,1.1,
9,168,1612,1,0.2,0.65,
9,169,1946,-1,0.65,0.35,
9,170,1740,-1,1.4,0.35,
9,171,1863,-1,0.95,0.65,
9,172,1989,-1,1.4,0.8,
9,173,1949,-1,0.95,0.5,
9,174,1747,-1,0.65,0.5,
9,175,2973,-1,1.1,0.5,
9,176,2123,-1,1.55,1.1,
9,177,1819,1,0.5,0.8,
9,178,2069,1,0.8,1.55,
9,179,1819,1,0.5,0.8,
9,180,1802,-1,1.55,0.35,
9,181,3558,-1,0.65,0.5,
9,182,2240,-1,1.4,0.65,
9,183,1748,1,0.35,0.5,
9,184,1234,1,0.65,1.4,
9,185,1470,1,0.5,0.8,
9,186,2641,1,0.35,0.95,
9,187,2270,1,1.55,1.55,
9,188,4314,1,0.65,0.65,
9,189,1667,-1,1.55,0.2,
9,190,1672,-1,1.55,0.35,
9,191,2124,-1,0.8,0.8,
9,192,2135,-1,0.5,0.35,
9,193,1664,1,0.65,1.55,
9,194,1724,1,0.95,1.1,
9,195,3955,-1,0.35,0.65,
9,196,1780,-1,0.95,0.8,
9,197,1572,1,0.5,1.1,
9,198,1499,1,0.35,1.55,
9,199,1501,1,0.5,0.65,
9,200,2341,1,1.55,1.4,
9,201,1387,1,1.55,0.2,
9,202,3092,-1,0.35,0.95,
9,203,2529,-1,0.65,0.65,
9,204,1431,-1,0.2,0.65,
9,205,1272,1,0.5,0.35,
9,206,1545,1,1.55,0.35,
9,207,2115,-1,0.8,1.55,
9,208,1489,1,1.4,0.35,
9,209,2337,-1,0.5,1.1,
9,210,5734,1,0.35,0.65,
9,211,1360,1,0.65,0.5,
9,212,1586,1,0.95,0.5,
9,213,1674,-1,0.5,0.8,
9,214,1752,-1,0.35,1.55,
9,215,1820,-1,0.65,1.55,
9,216,1977,1,0.35,0.05,
9,217,1517,1,0.95,0.8,
9,218,1998,-1,1.55,1.55,
9,219,2126,-1,0.5,0.8,
9,220,1709,-1,0.65,1.4,
9,221,2013,-1,0.8,0.95,
9,222,2873,1,0.65,0.5,
9,223,5345,-1,0.35,0.5,
9,224,1652,1,1.4,0.8,
9,225,1959,-1,0.5,0.8,
9,226,1481,-1,0.8,1.1,
9,227,1497,1,1.55,0.35,
9,228,2102,1,0.95,0.65,
9,229,1171,1,1.55,0.5,
9,230,1670,-1,0.5,1.1,
9,231,1854,-1,0.8,0.65,
9,232,1275,1,1.1,0.5,
9,233,3400,1,1.4,0.65,
9,234,6826,1,1.55,1.1,
9,235,3907,-1,0.95,1.1,
9,236,1393,1,0.65,0.35,
9,237,3952,1,0.8,0.8,
9,238,1515,-1,0.65,0.95,
9,239,1843,-1,0.5,0.65,
10,0,3506,-1,0.5,0.05,
10,1,2980,-1,1.55,0.5,
10,2,3085,-1,2.15,1.7,
10,3,4721,1,2.45,2,
10,4,2865,1,2.15,2.45,
10,5,3203,1,1.55,1.85,
10,6,4214,1,2,1.1,
10,7,3555,-1,1.7,1.7,
10,8,2589,1,1.7,1.7,
10,9,7639,-1,0.5,2.15,
10,10,2773,1,0.5,1.7,
10,11,2031,1,0.2,2.45,
10,12,2572,-1,0.95,0.8,
10,13,2365,1,0.8,2,
10,14,2909,1,1.4,2.45,
10,15,2928,-1,1.4,2.75,
10,16,3911,1,2.15,2,
10,17,3158,-1,1.85,2,
10,18,4834,1,2.15,1.7,
10,19,5582,-1,1.7,2.45,
10,20,5670,-1,2,0.5,
10,21,3809,1,0.35,0.95,
10,22,2212,-1,1.4,1.1,
10,23,3480,1,1.7,2.15,
10,24,3696,1,1.85,2.45,
10,25,6170,1,2,1.55,
10,26,4571,-1,1.85,0.65,
10,27,4636,-1,1.7,0.95,
10,28,3689,-1,1.55,0.65,
10,29,4681,-1,0.95,0.8,
10,30,3393,1,1.25,1.7,
10,31,9360,1,1.7,1.55,
10,32,7062,-1,1.4,0.5,
10,33,4169,1,0.05,2,
10,34,2802,-1,2.15,1.25,
10,35,3467,-1,0.95,2.45,
10,36,3090,1,2.75,2.3,
10,37,2204,1,1.85,0.95,
10,38,1922,-1,2.3,1.55,
10,39,5786,-1,1.55,1.1,
10,40,2956,-1,0.35,0.95,
10,41,2454,1,2.15,1.25,
10,42,3689,1,1.4,0.5,
10,43,3204,-1,1.7,1.55,
10,44,2595,-1,2.75,2.3,
10,45,2382,1,1.85,0.65,
10,46,3263,-1,1.7,1.7,
10,47,2722,1,1.4,2.75,
10,48,4175,1,2,0.5,
10,49,5743,1,0.5,0.05,
10,50,3413,1,1.7,2.45,
10,51,2708,1,0.95,0.8,
10,52,3229,-1,0.2,2.45,
10,53,2054,1,1.55,0.65,
10,54,2506,1,1.4,1.1,
10,55,4890,1,1.7,0.95,
10,56,3795,-1,1.7,1.7,
10,57,2899,-1,1.55,1.1,
10,58,3657,-1,2.15,2.45,
10,59,2598,1,2,1.55,
10,60,6073,-1,1.55,0.5,
10,61,5231,-1,0.95,2.45,
10,62,2200,1,1.85,2,
10,63,4621,1,0.8,2,
10,64,1960,-1,1.7,2.15,
10,65,7929,1,2.15,2,
10,66,2436,-1,1.4,2.45,
10,67,2712,-1,0.05,2,
10,68,4729,-1,2.15,1.7,
10,69,5774,1,0.95,0.8,
10,70,2578,-1,1.55,1.85,
10,71,3228,-1,1.25,1.7,
10,72,2676,-1,1.85,0.95,
10,73,5374,-1,2.45,2,
10,74,2111,-1,0.5,1.7,
10,75,4374,-1,1.85,2.45,
10,76,2281,1,2.15,1.7,
10,77,2216,-1,2,1.1,
10,78,3987,1,0.5,2.15,
10,79,938,-1,2.3,1.55,
10,80,2736,-1,1.7,0.5,
10,81,2466,-1,2.15,0.5,
10,82,3623,1,1.55,2,
10,83,2424,1,0.8,2,
10,84,2002,-1,2.45,0.2,
10,85,1571,1,0.05,0.5,
10,86,3560,-1,2.15,0.95,
10,87,2252,1,1.1,2,
10,88,1642,1,1.55,1.25,
10,89,4497,1,2,2.3,
10,90,1703,-1,1.1,2.45,
10,91,1717,-1,2.3,0.35,
10,92,2756,-1,0.5,1.55,
10,93,2988,-1,1.1,1.55,
10,94,2556,1,1.7,1.25,
10,95,2471,-1,2,2,
10,96,2101,1,1.1,1.7,
10,97,3562,-1,1.7,1.85,
10,98,4303,-1,0.95,1.1,
10,99,1778,1,0.5,1.4,
10,100,1344,1,0.65,1.55,
10,101,1962,1,1.7,1.7,
10,102,4684,-1,2.45,0.95,
10,103,2466,-1,1.7,2,
10,104,1986,-1,2.45,1.4,
10,105,2107,-1,2.45,1.85,
10,106,2329,-1,1.25,0.35,
10,107,2312,1,0.35,2.45,
10,108,1893,-1,2.15,1.7,
10,109,2260,-1,2,0.05,
10,110,1554,1,0.2,1.4,
10,111,2578,1,0.95,1.7,
10,112,2204,1,1.4,2,
10,113,3943,1,0.5,1.85,
10,114,2454,-1,2.45,1.7,
10,115,2718,-1,2,2.15,
10,116,2538,-1,1.25,1.7,
10,117,1732,-1,2.45,1.85,
10,118,3655,-1,1.7,2.15,
10,119,4338,-1,1.7,1.25,
10,120,3506,-1,0.5,1.85,
10,121,3359,1,1.7,1.25,
10,122,1600,1,2,2,
10,123,1479,-1,0.65,1.55,
10,124,2993,-1,1.7,1.85,
10,125,1505,-1,2.45,0.2,
10,126,1567,1,0.35,2.45,
10,127,3992,1,2.15,0.95,
10,128,2794,-1,0.8,2,
10,129,1367,-1,0.05,0.5,
10,130,2336,-1,2,2.15,
10,131,1558,1,1.7,1.7,
10,132,1423,-1,1.7,2.15,
10,133,4600,1,1.7,2,
10,134,2577,-1,1.4,2,
10,135,1729,1,2,0.05,
10,136,2359,-1,2.15,0.5,
10,137,4380,-1,1.7,1.25,
10,138,3733,-1,0.95,1.7,
10,139,2880,-1,1.25,0.35,
10,140,1793,1,2.45,1.85,
10,141,4008,-1,0.95,1.1,
10,142,2158,-1,1.1,1.7,
10,143,1844,1,1.55,2,
10,144,2946,1,2.45,0.95,
10,145,5357,1,2.15,1.7,
10,146,2331,1,1.1,2,
10,147,2172,-1,0.2,1.4,
10,148,3082,1,2.45,1.85,
10,149,3827,1,2.3,0.35,
10,150,4098,1,2,2.3,
10,151,2352,1,1.25,1.7,
10,152,3917,-1,0.5,1.55,
10,153,3000,1,0.5,1.4,
10,154,1635,1,2.45,1.4,
10,155,1775,-1,1.1,2.45,
10,156,2295,1,1.7,0.5,
10,157,3827,1,2.45,1.7,
10,158,2962,1,1.1,1.55,
10,159,1977,-1,1.55,1.25,
10,160,4509,1,0.8,0.95,
10,161,1608,1,0.35,2.3,
10,162,1847,1,0.5,2,
10,163,3415,-1,1.85,1.55,
10,164,2469,-1,2.45,1.1,
10,165,2127,1,1.7,1.25,
10,166,3784,-1,1.25,1.7,
10,167,4130,1,2,1.85,
10,168,2072,-1,1.7,1.1,
10,169,2461,1,1.55,2.3,
10,170,3262,-1,2,0.8,
10,171,2578,1,1.85,1.7,
10,172,2521,1,2,1.7,
10,173,2312,1,1.1,0.95,
10,174,5048,-1,2,0.8,
10,175,2326,1,1.1,1.4,
10,176,2761,-1,2,2.45,
10,177,1701,-1,2,1.4,
10,178,1430,-1,2.3,2,
10,179,2193,-1,2.45,2.15,
10,180,1634,-1,2.3,2.75,
10,181,3721,-1,0.95,0.35,
10,182,2321,-1,1.25,1.55,
10,183,3127,1,0.5,1.7,
10,184,4937,-1,1.85,0.5,
10,185,1991,1,1.85,2.45,
10,186,1710,-1,2.45,0.35,
10,187,2766,-1,2,2,
10,188,1513,-1,1.7,0.5,
10,189,2012,1,0.8,0.95,
10,190,4019,-1,0.95,1.85,
10,191,2201,1,1.25,2.15,
10,192,2828,-1,1.7,1.7,
10,193,3757,-1,1.55,1.7,
10,194,1941,1,1.7,2.15,
10,195,2158,1,2.75,1.4,
10,196,2861,1,0.95,2.15,
10,197,1471,-1,1.4,0.2,
10,198,2292,1,0.65,1.85,
10,199,2536,1,0.35,1.25,
10,200,3624,-1,1.85,0.5,
10,201,2872,1,2.3,2.75,
10,202,1663,1,2,0.8,
10,203,2138,1,2.45,0.35,
10,204,3166,1,2,0.8,
10,205,2659,-1,1.25,1.7,
10,206,1862,1,2,1.7,
10,207,2777,1,0.95,0.35,
10,208,4617,1,2.45,2.15,
10,209,3374,-1,1.85,1.7,
10,210,2568,-1,1.1,1.4,
10,211,2761,1,1.4,0.2,
10,212,3259,1,1.7,2.15,
10,213,2754,-1,2,1.85,
10,214,2407,-1,0.5,1.7,
10,215,4312,1,1.1,0.95,
10,216,3624,-1,1.25,2.15,
10,217,3939,-1,0.35,1.25,
10,218,2407,1,0.8,0.95,
10,219,1780,-1,0.35,2.3,
10,220,2525,-1,2,2,
10,221,1833,-1,1.55,2.3,
10,222,3869,-1,2.3,2,
10,223,1386,-1,0.65,1.85,
10,224,2312,1,1.85,2.45,
10,225,2880,1,2.45,1.1,
10,226,2177,1,1.25,1.55,
10,227,3649,1,1.55,1.7,
10,228,1952,1,2,1.4,
10,229,3193,1,0.95,2.15,
10,230,2475,-1,0.5,2,
10,231,2149,1,1.7,1.7,
10,232,1594,-1,0.8,0.95,
10,233,2011,1,0.95,1.85,
10,234,1903,1,1.7,0.5,
10,235,2093,-1,1.7,1.25,
10,236,1776,1,1.85,1.55,
10,237,2006,1,2,2.45,
10,238,3972,1,1.7,1.1,
10,239,2425,-1,2.75,1.4,
11,0,2760,-1,0.8,1.85,
11,1,5105,1,1.1,1.1,
11,2,4853,1,0.95,0.8,
11,3,3052,-1,0.65,0.35,
11,4,5478,1,0.95,0.5,
11,5,2862,1,0.65,0.8,
11,6,2763,1,0.9,0.95,
11,7,3249,1,0.95,2.6,
11,8,5690,1,1.1,1.25,
11,9,2140,1,0.8,0.5,
11,10,2729,1,0.5,0.8,
11,11,1517,1,0.35,1.55,
11,12,2032,-1,2,0.8,
11,13,4849,-1,1.1,0.95,
11,14,2284,-1,1.55,1.25,
11,15,3563,-1,2.6,2.75,
11,16,2064,-1,0.95,1.4,
11,17,3308,-1,0.8,0.8,
11,18,2133,-1,2,0.95,
11,19,2093,1,0.95,2.6,
11,20,2719,-1,0.95,0.8,
11,21,2134,1,0.8,2.75,
11,22,3938,-1,0.9,1.25,
11,23,2338,-1,0.8,0.5,
11,24,4431,1,1.55,2.15,
11,25,3701,-1,1.85,1.1,
11,26,3714,1,0.8,1.1,
11,27,2911,1,0.95,1.1,
11,28,2926,-1,1.55,0.95,
11,29,4004,-1,1.55,0.65,
11,30,3017,1,0.8,0.8,
11,31,2236,-1,1.1,0.5,
11,32,4422,-1,0.95,1.1,
11,33,2606,-1,1.55,1.1,
11,34,3975,-1,1.1,0.5,
11,35,1816,-1,0.95,0.5,
11,36,2089,-1,2.6,1.1,
11,37,1671,1,1.4,2,
11,38,3882,-1,2.15,0.8,
11,39,3183,1,0.65,1.1,
11,40,1693,-1,0.8,1.1,
11,41,3529,-1,1.55,2.15,
11,42,3619,1,1.1,1.1,
11,43,4619,-1,1.55,1.1,
11,44,2557,-1,0.95,0.8,
11,45,2870,1,1.55,0.95,
11,46,2978,1,0.9,1.25,
11,47,4036,1,0.95,0.8,
11,48,2904,1,0.95,0.5,
11,49,4174,-1,1.4,2,
11,50,3539,1,1.85,1.1,
11,51,1795,1,1.1,1.25,
11,52,5726,-1,2.6,2.75,
11,53,5765,-1,0.95,1.1,
11,54,1930,-1,0.8,2.75,
11,55,3574,1,2.6,1.1,
11,56,2206,1,1.55,1.25,
11,57,1649,1,0.95,1.4,
11,58,5114,-1,1.1,0.95,
11,59,2477,-1,0.95,1.1,
11,60,1941,-1,0.8,0.8,
11,61,2183,1,0.8,0.5,
11,62,2862,-1,0.8,0.5,
11,63,3906,-1,0.9,0.95,
11,64,2611,-1,0.65,1.1,
11,65,3938,-1,0.8,1.85,
11,66,1922,-1,0.35,1.55,
11,67,2064,-1,0.5,0.8,
11,68,1826,1,0.95,0.5,
11,69,1756,1,1.1,0.5,
11,70,3119,1,2,0.8,
11,71,1499,1,0.65,0.35,
11,72,2139,1,1.1,0.5,
11,73,4705,-1,0.95,2.6,
11,74,8860,1,1.55,0.65,
11,75,4205,1,0.65,0.8,
11,76,2712,1,2,0.95,
11,77,2958,1,0.8,0.8,
11,78,2525,-1,0.95,2.6,
11,79,1843,1,2.15,0.8,
11,80,2048,-1,1.1,0.8,
11,81,1358,1,0.95,2,
11,82,1972,1,1.1,2.6,
11,83,1506,1,0.5,0.95,
11,84,1870,1,1.25,1.55,
11,85,3827,1,1.55,2,
11,86,4009,1,0.95,0.95,
11,87,1823,-1,0.95,0.5,
11,88,1891,-1,1.55,0.5,
11,89,3176,-1,0.8,1.1,
11,90,1522,1,1.85,2,
11,91,1172,1,0.5,1.1,
11,92,1541,1,1.1,1.85,
11,93,1815,-1,1.1,1.55,
11,94,1635,1,1.1,2.6,
11,95,1287,1,0.8,2,
11,96,1549,1,0.5,0.8,
11,97,2081,-1,0.95,1.1,
11,98,3162,1,1.25,0.95,
11,99,1424,1,0.8,2.15,
11,100,2061,-1,1.1,0.8,
11,101,2998,-1,2.15,1.55,
11,102,2476,-1,2,0.8,
11,103,2307,1,0.65,1.55,
11,104,2429,-1,1.1,0.65,
11,105,1946,-1,0.8,0.35,
11,106,1583,1,0.35,2.6,
11,107,1881,1,0.8,0.95,
11,108,4080,1,0.95,0.95,
11,109,1583,-1,0.95,0.9,
11,110,1862,-1,1.55,0.35,
11,111,2190,-1,1.7,0.8,
11,112,3909,1,0.95,1.7,
11,113,2582,-1,2.15,0.95,
11,114,2094,-1,0.8,0.5,
11,115,1126,1,0.35,0.65,
11,116,4553,-1,1.1,2.15,
11,117,2060,-1,0.5,1.85,
11,118,1614,-1,1.1,0.8,
11,119,2439,1,0.8,0.65,
11,120,3632,-1,1.1,2.6,
11,121,6941,1,1.1,0.8,
11,122,2011,1,0.95,0.5,
11,123,1769,1,0.8,0.35,
11,124,2308,-1,0.65,1.55,
11,125,3892,1,0.95,1.1,
11,126,2113,1,1.7,0.8,
11,127,2016,-1,0.8,2.15,
11,128,4951,-1,1.85,2,
11,129,1684,-1,1.25,1.55,
11,130,2001,-1,0.8,2,
11,131,1248,-1,0.8,0.65,
11,132,5374,-1,1.1,2.15,
11,133,1743,-1,0.5,1.1,
11,134,1945,1,1.1,0.65,
11,135,1487,-1,0.35,0.65,
11,136,2217,-1,0.95,0.95,
11,137,4695,-1,1.55,2,
11,138,2110,1,2.15,0.95,
11,139,2154,-1,0.8,0.95,
11,140,1943,1,1.55,0.5,
11,141,2061,-1,0.5,0.8,
11,142,1499,1,1.55,0.35,
11,143,2608,-1,0.95,0.95,
11,144,1623,1,0.95,0.9,
11,145,2166,-1,0.95,2,
11,146,1357,-1,0.5,0.95,
11,147,1993,1,0.8,0.5,
11,148,4362,1,1.1,0.8,
11,149,5219,1,1.1,1.55,
11,150,3413,-1,1.25,0.95,
11,151,1948,-1,0.35,2.6,
11,152,2161,-1,1.1,2.6,
11,153,3073,1,0.5,1.85,
11,154,1729,-1,1.1,1.85,
11,155,1759,-1,0.95,1.7,
11,156,1803,1,2,0.8,
11,157,1900,1,2.15,1.55,
11,158,3305,1,0.8,1.1,
11,159,1989,1,1.1,0.8,
11,160,2055,-1,2.6,1.1,
11,161,1806,1,0.95,1.55,
11,162,2709,1,0.8,0.95,
11,163,5664,1,2.15,1.1,
11,164,4047,-1,1.25,1.1,
11,165,5885,-1,1.1,0.95,
11,166,2649,-1,2,1.4,
11,167,2196,1,2.75,2.6,
11,168,1713,1,1.1,0.8,
11,169,1688,-1,0.8,0.8,
11,170,2312,-1,1.7,0.95,
11,171,1614,1,0.8,1.1,
11,172,1674,1,2.6,0.95,
11,173,2117,1,0.95,2.15,
11,174,3274,1,2.75,0.8,
11,175,1867,-1,1.1,0.95,
11,176,1273,1,0.8,1.7,
11,177,1686,1,0.8,0.8,
11,178,1439,1,0.35,0.8,
11,179,1928,-1,1.85,0.8,
11,180,2615,-1,0.95,1.25,
11,181,2699,-1,0.5,0.8,
11,182,2169,1,0.95,0.8,
11,183,2593,-1,0.95,0.95,
11,184,2311,-1,2.6,0.95,
11,185,3911,-1,0.95,0.95,
11,186,2211,1,1.85,0.5,
11,187,1851,1,1.1,1.1,
11,188,1526,1,0.8,1.1,
11,189,1669,1,0.5,1.1,
11,190,2369,-1,2.6,0.35,
11,191,1317,1,0.8,0.95,
11,192,2625,1,2,1.55,
11,193,2430,-1,1.25,0.9,
11,194,2106,1,0.8,2,
11,195,1432,1,1.4,0.95,
11,196,1304,1,0.5,0.95,
11,197,2075,1,2,1.85,
11,198,3202,1,0.5,0.95,
11,199,926,1,0.5,1.55,
11,200,2344,1,1.7,0.95,
11,201,1725,1,0.95,0.8,
11,202,1856,-1,0.95,2.15,
11,203,3411,-1,2.15,1.1,
11,204,2067,1,0.95,1.25,
11,205,2129,-1,1.1,1.1,
11,206,1049,-1,0.5,1.55,
11,207,2041,1,1.1,0.95,
11,208,1292,-1,1.4,0.95,
11,209,2487,-1,2,1.85,
11,210,1552,-1,1.1,0.8,
11,211,1845,-1,0.8,1.1,
11,212,3187,1,1.25,1.1,
11,213,3557,-1,0.8,2,
11,214,2602,-1,0.8,0.95,
11,215,1066,-1,0.8,1.1,
11,216,1805,1,0.5,0.8,
11,217,3007,-1,2.75,0.8,
11,218,2244,-1,2.75,2.6,
11,219,1962,1,2.6,0.35,
11,220,2514,-1,0.8,0.95,
11,221,2807,1,0.95,0.95,
11,222,1584,-1,0.35,0.8,
11,223,2683,1,2.6,1.1,
11,224,2122,1,0.5,1.1,
11,225,2227,-1,2.6,0.95,
11,226,2900,-1,0.95,1.55,
11,227,2616,1,2,1.4,
11,228,2494,-1,0.8,0.8,
11,229,1692,1,2.6,0.95,
11,230,3233,-1,1.85,0.5,
11,231,2537,1,1.85,0.8,
11,232,2545,-1,0.8,0.8,
11,233,1535,-1,0.5,0.95,
11,234,2267,1,1.1,0.95,
11,235,1963,-1,0.8,1.7,
11,236,1907,1,0.95,0.95,
11,237,1731,1,2,1.55,
11,238,3364,-1,1.25,0.9,
11,239,2139,-1,0.5,0.95,
12,0,3122,1,1.1,1.55,
12,1,2113,-1,2,0.95,
12,2,1817,1,0.95,1.25,
12,3,13467,1,2,1.1,
12,4,2553,1,0.5,0.95,
12,5,3777,-1,1.55,0.95,
12,6,2998,-1,1.1,0.8,
12,7,3867,1,3,1.55,
12,8,3850,1,1.25,1.1,
12,9,3788,-1,1.25,0.95,
12,10,3168,-1,1.25,0.8,
12,11,5483,1,0.8,0.95,
12,12,5333,-1,1.4,0.95,
12,13,3084,1,0.95,1.1,
12,14,2038,1,1.1,2,
12,15,2726,1,0.65,1.1,
12,16,2985,1,1.1,1.1,
12,17,3928,1,1.25,1.25,
12,18,2503,-1,1.1,0.65,
12,19,2530,1,0.95,3,
12,20,7257,1,0.8,1.55,
12,21,3053,-1,1.1,0.5,
12,22,5096,1,0.95,1.4,
12,23,2094,1,1.1,2.3,
12,24,2974,1,0.95,1.1,
12,25,3254,-1,1.55,0.8,
12,26,1982,-1,1.55,1.55,
12,27,5552,1,1.1,1.4,
12,28,5590,1,1.4,1.1,
12,29,9101,1,1.25,1.1,
12,30,4241,-1,0.95,0.8,
12,31,6322,1,1.4,2,
12,32,4835,1,1.1,1.1,
12,33,3087,-1,0.95,0.95,
12,34,2451,-1,1.55,1.25,
12,35,13101,-1,1.1,1.1,
12,36,3194,1,0.95,1.1,
12,37,3344,-1,1.1,0.95,
12,38,1457,-1,1.1,0.95,
12,39,2485,-1,0.95,0.95,
12,40,5231,-1,1.1,2.3,
12,41,4462,-1,0.95,1.25,
12,42,3251,-1,1.1,1.1,
12,43,2989,1,0.95,0.95,
12,44,1436,-1,1.55,1.55,
12,45,2317,-1,1.4,0.95,
12,46,4848,-1,1.1,1.1,
12,47,3389,1,1.1,0.5,
12,48,3074,-1,0.8,0.95,
12,49,3791,1,1.55,0.95,
12,50,3028,-1,0.95,0.8,
12,51,3044,-1,0.65,1.1,
12,52,2738,-1,2,0.95,
12,53,1892,1,0.95,1.4,
12,54,1817,1,0.8,1.55,
12,55,1916,1,1.1,0.65,
12,56,1676,-1,1.55,0.8,
12,57,2460,1,3,1.55,
12,58,2758,1,1.1,1.55,
12,59,1924,-1,0.5,0.95,
12,60,3399,1,1.55,1.25,
12,61,2055,1,0.95,1.1,
12,62,2383,-1,1.1,0.95,
12,63,2015,1,1.1,0.8,
12,64,3407,1,0.95,0.95,
12,65,2199,1,1.25,0.95,
12,66,3073,-1,1.25,1.25,
12,67,2721,-1,0.95,3,
12,68,2562,-1,1.1,2,
12,69,2099,-1,1.25,1.1,
12,70,2332,1,1.1,0.95,
12,71,3103,-1,1.4,1.1,
12,72,3074,1,2,1.1,
12,73,3804,-1,1.4,2,
12,74,1685,-1,0.95,1.1,
12,75,747,-1,1.1,1.4,
12,76,4899,-1,1.25,0.8,
12,77,3078,-1,0.95,1.1,
12,78,4006,1,1.1,1.1,
12,79,4284,-1,1.25,1.1,
12,80,2982,-1,1.1,1.25,
12,81,3131,-1,1.1,0.8,
12,82,2125,1,0.95,1.4,
12,83,1741,1,1.25,0.95,
12,84,7726,1,1.25,1.55,
12,85,2261,1,0.5,1.1,
12,86,1268,-1,1.1,0.95,
12,87,3110,1,1.25,1.1,
12,88,2557,-1,1.4,1.25,
12,89,3128,-1,1.1,1.4,
12,90,2172,-1,1.1,1.1,
12,91,2781,1,1.4,0.8,
12,92,1806,-1,2,1.1,
12,93,1993,1,0.8,1.1,
12,94,2642,1,0.95,0.95,
12,95,3105,-1,1.1,1.1,
12,96,4473,-1,0.95,1.1,
12,97,1413,-1,2.3,1.1,
12,98,1600,-1,1.55,0.8,
12,99,1747,1,1.55,1.55,
12,100,4233,1,2,2.3,
12,101,2041,-1,1.1,1.1,
12,102,6414,1,1.1,1.1,
12,103,2066,1,0.95,1.1,
12,104,3344,-1,1.25,1.1,
12,105,1771,-1,2,0.8,
12,106,4325,-1,0.95,0.8,
12,107,1653,1,0.65,1.1,
12,108,1831,1,0.95,0.95,
12,109,2366,-1,1.85,1.1,
12,110,3928,-1,0.95,1.85,
12,111,745,-1,1.4,1.1,
12,112,589,-1,1.1,2,
12,113,2382,-1,1.1,0.95,
12,114,2128,-1,1.1,1.25,
12,115,1814,1,1.1,1.1,
12,116,1919,1,0.8,1.55,
12,117,1829,1,0.8,1.25,
12,118,5215,1,0.95,1.25,
12,119,1722,1,0.95,1.1,
12,120,4664,1,0.95,1.1,
12,121,2502,1,1.1,0.95,
12,122,4981,-1,1.1,2,
12,123,1723,1,0.8,1.1,
12,124,2724,-1,0.95,0.8,
12,125,2253,1,1.4,1.25,
12,126,1817,-1,1.1,1.4,
12,127,1894,1,2,2.3,
12,128,2026,1,1.1,1.1,
12,129,5165,1,1.1,1.1,
12,130,4468,-1,1.25,1.1,
12,131,2687,-1,1.4,1.1,
12,132,1845,1,0.5,1.1,
12,133,5522,1,0.95,0.95,
12,134,4278,-1,1.1,1.1,
12,135,2623,-1,0.95,1.1,
12,136,2588,1,2,0.8,
12,137,2581,1,1.1,1.1,
12,138,1601,-1,1.55,1.55,
12,139,2664,-1,1.25,1.1,
12,140,3320,1,1.1,1.25,
12,141,2356,1,2,1.1,
12,142,3163,-1,1.25,0.95,
12,143,2523,-1,1.55,0.8,
12,144,1712,-1,0.95,1.4,
12,145,3851,-1,1.4,0.8,
12,146,3017,-1,0.95,0.95,
12,147,11705,-1,1.1,1.1,
12,148,1701,-1,0.65,1.1,
12,149,4700,-1,0.8,1.55,
12,150,2951,1,1.1,0.95,
12,151,3977,-1,1.25,1.55,
12,152,4255,1,0.95,1.85,
12,153,2853,1,1.85,1.1,
12,154,3495,1,0.95,1.25,
12,155,2910,1,2.3,1.1,
12,156,2451,1,1.1,1.25,
12,157,1703,1,0.95,1.1,
12,158,1608,1,0.8,1.25,
12,159,1497,-1,1.1,0.8,
12,160,1948,-1,1.1,1.25,
12,161,2361,-1,1.25,1.25,
12,162,1359,-1,1.4,0.95,
12,163,3505,-1,1.25,0.95,
12,164,1759,1,1.25,1.4,
12,165,2437,-1,1.4,0.95,
12,166,1846,1,1.1,2,
12,167,6845,-1,1.1,0.95,
12,168,3491,-1,1.55,1.1,
12,169,2384,1,1.1,1.1,
12,170,1764,1,1.1,0.8,
12,171,2886,-1,1.1,0.65,
12,172,2924,-1,2.3,2,
12,173,1612,-1,1.1,1.1,
12,174,1905,-1,0.95,1.25,
12,175,2184,-1,1.1,1.85,
12,176,1669,1,0.95,1.1,
12,177,2722,-1,1.1,2,
12,178,4781,1,0.8,1.4,
12,179,923,-1,0.8,2,
12,180,2715,1,0.8,0.95,
12,181,1932,-1,1.1,0.95,
12,182,2508,1,1.55,3,
12,183,1277,-1,2,1.1,
12,184,2415,-1,3,0.95,
12,185,5030,-1,2,1.1,
12,186,1638,1,1.1,1.1,
12,187,1720,-1,0.8,1.1,
12,188,1208,-1,0.8,1.1,
12,189,6303,1,0.95,0.5,
12,190,1810,1,0.95,1.55,
12,191,2031,-1,1.1,1.1,
12,192,1511,1,0.95,2,
12,193,1582,-1,2,1.4,
12,194,1433,-1,1.1,1.1,
12,195,1773,-1,1.1,1.1,
12,196,1225,-1,1.85,0.95,
12,197,2914,-1,1.1,0.95,
12,198,1666,1,0.95,1.4,
12,199,3874,-1,1.1,1.25,
12,200,3094,-1,1.1,0.95,
12,201,3902,-1,1.1,1.1,
12,202,1409,-1,1.4,0.95,
12,203,1559,1,0.95,1.55,
12,204,1477,-1,1.1,1.85,
12,205,3069,1,1.25,0.95,
12,206,2134,1,1.1,1.25,
12,207,2817,-1,1.1,2,
12,208,2134,1,1.25,1.25,
12,209,1617,1,0.95,0.5,
12,210,1461,-1,2,1.1,
12,211,2339,1,1.4,0.95,
12,212,5991,-1,1.1,1.1,
12,213,2199,1,1.1,0.8,
12,214,2462,1,1.55,3,
12,215,1067,-1,2.3,2,
12,216,10287,-1,1.1,2,
12,217,1925,1,0.8,0.95,
12,218,1135,-1,2,1.1,
12,219,3665,-1,1.1,0.95,
12,220,3337,-1,0.8,1.1,
12,221,1621,1,1.1,1.25,
12,222,4467,-1,1.1,1.1,
12,223,1513,-1,0.95,1.1,
12,224,2373,1,1.25,1.4,
12,225,1853,1,1.1,0.95,
12,226,1472,1,0.95,1.4,
12,227,6250,1,1.85,0.95,
12,228,2147,1,1.55,1.1,
12,229,2173,1,1.1,1.1,
12,230,1871,-1,0.95,2,
12,231,2146,-1,0.8,1.1,
12,232,3778,-1,0.8,1.4,
12,233,1974,1,3,0.95,
12,234,1914,1,1.1,1.1,
12,235,3997,1,1.1,0.65,
12,236,1766,1,2,1.4,
12,237,11609,-1,0.8,2,
12,238,1188,-1,1.1,1.1,
12,239,1682,1,0.95,1.25,
13,0,3026,-1,1.55,0.95,
13,1,6085,-1,1.4,0.65,
13,2,2973,1,0.5,1.25,
13,3,2403,-1,1.7,0.2,
13,4,4994,-1,1.4,1.25,
13,5,8129,1,0.8,1.1,
13,6,2724,1,0.2,0.95,
13,7,2958,1,0.65,1.7,
13,8,6325,-1,0.8,0.8,
13,9,2982,-1,1.55,0.95,
13,10,2517,1,0.5,1.7,
13,11,4855,-1,0.8,0.5,
13,12,5389,-1,1.4,0.65,
13,13,8752,-1,0.65,0.5,
13,14,6138,1,1.4,0.8,
13,15,11077,1,0.8,1.7,
13,16,8571,-1,1.7,1.4,
13,17,2352,1,0.35,1.4,
13,18,2796,1,0.65,1.7,
13,19,7217,-1,1.55,1.1,
13,20,2216,-1,0.45,0.15,
13,21,4222,1,1.4,1.4,
13,22,8159,1,1.25,1.55,
13,23,2066,-1,0.95,0.35,
13,24,6417,-1,0.8,0.65,
13,25,3729,1,1.7,2,
13,26,2155,-1,1.55,0.8,
13,27,1420,-1,1.55,0.5,
13,28,2756,-1,0.95,0.95,
13,29,5361,-1,0.65,0.35,
13,30,2690,-1,2,0.95,
13,31,3691,1,1.7,2,
13,32,3081,1,0.8,0.95,
13,33,3734,-1,1.85,1.55,
13,34,1798,1,1.25,0.65,
13,35,7156,-1,0.5,1.7,
13,36,3874,1,0.45,1.4,
13,37,1818,-1,1.7,1.25,
13,38,2288,1,0,0.8,
13,39,1531,-1,1.7,0.95,
13,40,2075,1,1.55,0.5,
13,41,7535,1,1.55,0.95,
13,42,4586,-1,1.25,1.55,
13,43,8661,-1,1.7,2,
13,44,3957,-1,0.65,1.7,
13,45,9202,-1,0.45,1.4,
13,46,2922,1,0.45,0.15,
13,47,5625,1,1.4,0.8,
13,48,4227,1,1.7,0.2,
13,49,2575,-1,0.5,1.7,
13,50,1625,-1,0,0.8,
13,51,2323,1,0.65,0.5,
13,52,2629,1,1.7,0.95,
13,53,5584,-1,1.4,1.25,
13,54,1722,-1,0.5,1.25,
13,55,4294,-1,0.8,1.1,
13,56,3248,1,1.4,0.65,
13,57,16464,-1,1.85,1.55,
13,58,2965,1,0.95,0.95,
13,59,11012,-1,1.7,1.4,
13,60,2685,1,0.65,0.35,
13,61,2143,-1,0.35,1.4,
13,62,3143,1,1.7,1.25,
13,63,6030,-1,0.8,0.95,
13,64,8023,1,0.5,1.7,
13,65,4240,1,2,0.95,
13,66,10859,1,1.4,0.65,
13,67,3170,1,1.55,0.8,
13,68,8323,-1,1.4,1.4,
13,69,2384,1,0.8,0.65,
13,70,5240,1,1.55,1.1,
13,71,3112,-1,1.25,0.65,
13,72,1838,1,0.8,0.5,
13,73,1973,1,1.55,0.95,
13,74,1872,1,0.95,0.35,
13,75,1676,-1,0.65,1.7,
13,76,9760,1,0.8,1.7,
13,77,2523,-1,0.2,0.95,
13,78,5853,1,0.8,0.8,
13,79,9577,-1,1.7,2,
13,80,1843,-1,2,0.95,
13,81,2659,1,0.65,1.25,
13,82,6096,1,1.55,1.7,
13,83,1394,-1,1.7,0.65,
13,84,1685,-1,0.5,0.95,
13,85,5368,-1,1.4,1.4,
13,86,3149,1,0.95,1.55,
13,87,4200,1,1.1,1.55,
13,88,1871,-1,0.65,0.2,
13,89,5307,1,2,1.7,
13,90,1129,1,0.15,1.7,
13,91,3542,-1,1.7,1.1,
13,92,3093,-1,0.65,0.95,
13,93,4561,-1,1.25,0.5,
13,94,1770,-1,1.4,0.35,
13,95,1420,-1,1.7,0.5,
13,96,3153,1,1.25,1.4,
13,97,3412,1,0.95,1.85,
13,98,2581,1,1.7,1.55,
13,99,2098,-1,1.7,0.65,
13,100,3913,-1,0.95,0.65,
13,101,2231,1,0.95,1.7,
13,102,2624,1,0.5,0.5,
13,103,4743,-1,1.1,0.95,
13,104,1592,-1,1.25,0.5,
13,105,3100,1,0.35,1.7,
13,106,4751,1,1.7,0.8,
13,107,3495,-1,1.1,0.8,
13,108,1791,1,0.2,1.7,
13,109,2888,1,0.5,0.8,
13,110,1503,1,0.35,0.95,
13,111,1312,1,0.35,0.65,
13,112,2402,1,0.2,1.7,
13,113,1841,-1,0.8,1.4,
13,114,2094,1,0,1.55,
13,115,2247,1,0.15,0.45,
13,116,2259,1,0.65,0.8,
13,117,2496,1,1.25,1.7,
13,118,3827,-1,1.55,1.7,
13,119,2171,-1,0.65,1.25,
13,120,5493,1,1.55,1.7,
13,121,1823,-1,0.15,1.7,
13,122,1629,-1,0.35,1.7,
13,123,1205,1,0.65,0.2,
13,124,2014,1,2,1.7,
13,125,3254,-1,0.65,1.25,
13,126,1280,-1,0.65,0.8,
13,127,1452,-1,1.25,1.7,
13,128,1188,-1,0.35,0.95,
13,129,1774,-1,0.35,0.65,
13,130,1562,-1,0.2,1.7,
13,131,2817,1,1.1,0.95,
13,132,1970,-1,1.55,1.7,
13,133,2120,-1,0.95,1.55,
13,134,7061,-1,1.25,1.4,
13,135,1895,1,1.7,0.65,
13,136,2393,-1,0.95,1.85,
13,137,2211,1,0.95,0.65,
13,138,2508,-1,0.15,0.45,
13,139,2824,-1,1.1,1.55,
13,140,1679,1,0.5,0.95,
13,141,1131,1,1.25,0.5,
13,142,2595,1,1.7,1.1,
13,143,3503,-1,1.7,0.8,
13,144,1536,-1,0.2,1.7,
13,145,2417,1,1.1,0.8,
13,146,2395,-1,0.95,1.7,
13,147,1125,1,1.4,0.35,
13,148,2151,1,0.65,1.25,
13,149,1352,-1,0,1.55,
13,150,8065,1,1.4,1.4,
13,151,2867,1,0.65,0.95,
13,152,8247,1,0.8,1.4,
13,153,2116,-1,0.5,0.5,
13,154,1469,1,1.7,0.65,
13,155,1653,-1,0.5,0.8,
13,156,1432,1,1.7,0.5,
13,157,3820,-1,1.7,1.55,
13,158,9054,1,1.25,0.5,
13,159,4429,1,2,0.95,
13,160,4286,-1,1.85,0.95,
13,161,1674,-1,1.55,0,
13,162,2642,-1,0.65,0.95,
13,163,1775,1,1.7,1.55,
13,164,1913,1,0.8,0.8,
13,165,1524,1,0.5,1.55,
13,166,3266,1,1.4,1.7,
13,167,2329,1,0.8,1.55,
13,168,1653,-1,1.7,0.2,
13,169,3485,-1,1.25,0.65,
13,170,3184,1,0.95,1.55,
13,171,2099,1,0.95,0.65,
13,172,1136,1,0.95,1.55,
13,173,3904,-1,1.55,1.25,
13,174,3114,-1,1.25,1.4,
13,175,1077,-1,0.8,0,
13,176,4534,1,1.55,1.85,
13,177,3365,1,1.1,1.7,
13,178,4319,-1,1.7,1.55,
13,179,1701,-1,0.95,0.2,
13,180,2377,1,0.95,0.95,
13,181,1792,-1,0.5,0.5,
13,182,4765,-1,1.55,0.95,
13,183,4563,-1,0.5,1.25,
13,184,1163,1,0.2,0.65,
13,185,2835,-1,1.4,0.45,
13,186,2615,1,0.95,2,
13,187,2472,-1,1.7,0.35,
13,188,1629,-1,1.7,0.15,
13,189,2520,1,0.95,2,
13,190,1672,1,0.95,1.1,
13,191,6876,-1,1.4,1.25,
13,192,2783,1,1.7,0.5,
13,193,1208,1,0.5,0.65,
13,194,4702,1,0.95,0.8,
13,195,2309,-1,1.55,1.7,
13,196,5914,1,0.65,1.4,
13,197,1745,1,0.95,0.5,
13,198,2538,-1,2,1.7,
13,199,6103,1,0.65,1.4,
13,200,2832,-1,0.95,2,
13,201,3220,1,1.55,1.25,
13,202,1810,1,1.7,0.15,
13,203,1595,-1,0.2,0.65,
13,204,1619,-1,1.7,1.55,
13,205,1387,1,0.5,0.5,
13,206,2547,1,1.7,0.35,
13,207,5361,1,1.55,0.95,
13,208,2328,1,0.95,0.2,
13,209,2485,-1,1.7,0.5,
13,210,3548,1,2,1.7,
13,211,1978,-1,0.65,1.4,
13,212,1167,-1,0.95,1.55,
13,213,1476,-1,0.95,0.5,
13,214,1537,-1,0.5,1.25,
13,215,1131,-1,0.95,0.95,
13,216,2759,1,1.4,1.25,
13,217,2331,1,1.4,0.45,
13,218,1456,1,0.8,0,
13,219,1325,-1,0.95,1.1,
13,220,2046,-1,0.8,0.8,
13,221,2027,-1,0.95,0.65,
13,222,2086,1,1.25,1.4,
13,223,1395,1,1.55,0,
13,224,4194,-1,1.55,1.85,
13,225,1504,-1,0.95,2,
13,226,2114,1,1.7,1.55,
13,227,7989,-1,1.4,1.7,
13,228,1435,-1,0.8,1.55,
13,229,2070,-1,0.95,1.55,
13,230,6107,-1,1.1,1.7,
13,231,3078,-1,0.65,1.4,
13,232,6019,1,0.95,0.8,
13,233,1448,-1,0.5,1.55,
13,234,1003,-1,0.5,0.65,
13,235,3646,1,0.65,0.95,
13,236,2271,1,1.85,0.95,
13,237,4375,1,1.55,1.7,
13,238,2502,1,1.25,0.65,
13,239,1612,1,1.7,0.2,
14,0,4454,1,3,1.25,
14,1,4352,-1,0.95,1.85,
14,2,11312,1,2.3,3,
14,3,2681,1,2,2,
14,4,4703,-1,1.1,2.15,
14,5,3569,-1,1.1,1.55,
14,6,2993,-1,0,0.95,
14,7,6628,-1,2.45,2.6,
14,8,6188,1,1.7,1.7,
14,9,2743,1,2,1.25,
14,10,3464,1,1.7,2,
14,11,4531,1,2.6,1.55,
14,12,3179,1,1.4,0,
14,13,6067,-1,1.7,2.3,
14,14,2480,1,1.7,0,
14,15,5211,1,2,1.7,
14,16,3212,1,1.7,0.8,
14,17,6119,-1,1.85,2.15,
14,18,4090,-1,0,0.35,
14,19,2879,-1,0,1.85,
14,20,3324,-1,1.55,2.3,
14,21,2039,1,2.15,0.95,
14,22,2871,1,1.85,2,
14,23,2022,-1,0.95,2,
14,24,3007,-1,1.55,0.95,
14,25,3320,1,1.85,1.1,
14,26,3913,-1,2,3,
14,27,6028,-1,1.1,1.25,
14,28,6379,-1,2.15,1.7,
14,29,6732,1,1.85,1.85,
14,30,2985,1,2.45,2.15,
14,31,4737,1,2.3,1.7,
14,32,2744,1,2,0.95,
14,33,2859,1,1.85,1.7,
14,34,3178,-1,0,1.7,
14,35,1511,-1,0,2.45,
14,36,2823,-1,0.8,2.15,
14,37,4818,1,2,2.15,
14,38,4708,1,2.45,2.3,
14,39,1936,-1,0,2.45,
14,40,2347,1,0,1.7,
14,41,4609,-1,2.15,1.85,
14,42,2277,-1,1.85,0.95,
14,43,4343,1,1.85,2.15,
14,44,1852,-1,2.45,0.95,
14,45,3006,1,1.25,3,
14,46,3997,1,1.85,1.85,
14,47,2303,1,1.7,1.85,
14,48,2471,-1,1.7,0.95,
14,49,2984,-1,2.3,1.7,
14,50,2887,-1,2.15,1.55,
14,51,3416,1,0,1.4,
14,52,3238,-1,2,2.15,
14,53,4059,1,2,2,
14,54,5618,-1,3,1.7,
14,55,2367,1,2.15,2,
14,56,4644,-1,2.45,2,
14,57,2863,1,1.25,1.7,
14,58,5322,-1,2.3,1.85,
14,59,3601,-1,0.95,1.55,
14,60,3177,-1,2,1.1,
14,61,2087,1,1.1,1.85,
14,62,1881,-1,2,1.4,
14,63,2636,1,0,2,
14,64,2977,1,2,2.15,
14,65,1999,-1,2.45,1.1,
14,66,1680,-1,1.7,0,
14,67,1682,-1,2.45,0,
14,68,2004,-1,0.95,1.1,
14,69,3834,1,0,1.85,
14,70,2209,1,0.35,2.15,
14,71,3455,1,1.55,2.6,
14,72,1943,-1,3,2,
14,73,2699,-1,1.55,0.95,
14,74,2353,-1,1.25,1.1,
14,75,1816,1,0.8,1.7,
14,76,2326,1,1.7,2.3,
14,77,1670,-1,1.85,1.25,
14,78,1581,1,0.95,2.15,
14,79,3447,1,1.25,2,
14,80,2170,1,1.85,1.25,
14,81,1736,1,2.3,1.85,
14,82,2153,1,1.55,2.6,
14,83,4170,1,1.25,1.1,
14,84,2457,1,2,1.4,
14,85,3468,1,0.95,1.1,
14,86,2333,1,1.7,0.95,
14,87,8094,-1,2.15,2,
14,88,2941,1,2,1.1,
14,89,1930,-1,0,2,
14,90,4255,-1,1.25,1.7,
14,91,1913,1,2.45,0,
14,92,2146,-1,0,1.7,
14,93,2866,1,2.45,1.1,
14,94,2970,1,2.15,1.55,
14,95,2564,-1,1.1,1.85,
14,96,4977,-1,1.85,1.85,
14,97,3595,-1,2,2.15,
14,98,2714,-1,1.7,2.3,
14,99,4681,1,1.25,2,
14,100,1816,-1,0,1.4,
14,101,4904,1,2,2.15,
14,102,1497,-1,0.8,1.7,
14,103,2145,-1,0.35,2.15,
14,104,2733,1,3,1.7,
14,105,2456,-1,0,1.85,
14,106,3759,1,2.15,1.85,
14,107,2258,-1,0.95,2.15,
14,108,2855,1,2.45,2,
14,109,1396,1,2.45,0.95,
14,110,1838,1,1.7,0,
14,111,2858,-1,1.85,2.15,
14,112,4266,1,2.3,1.7,
14,113,3289,1,1.85,0.95,
14,114,3512,1,3,2,
14,115,2041,-1,1.25,3,
14,116,2834,1,0.95,1.55,
14,117,7334,1,1.55,0.95,
14,118,1898,-1,1.7,1.85,
14,119,3118,-1,2,2,
14,120,2660,1,1.4,2,
14,121,5081,1,2,2.45,
14,122,1518,1,0.95,2.45,
14,123,5153,-1,3,2.3,
14,124,3875,1,2.6,2.45,
14,125,3791,-1,2.45,0,
14,126,11142,1,1.1,1.25,
14,127,2744,1,1.55,2.15,
14,128,3385,1,1.25,1.1,
14,129,5527,1,1.7,1.7,
14,130,4437,-1,2,1.7,
14,131,2800,1,0.95,1.55,
14,132,8278,-1,2.15,0.8,
14,133,2593,1,1.7,2,
14,134,5415,1,1.7,3,
14,135,7503,1,0.95,2,
14,136,1485,-1,1.85,0,
14,137,1678,1,0.95,1.7,
14,138,1670,-1,2.15,0.35,
14,139,1435,-1,1.85,0,
14,140,3075,-1,0.35,0,
14,141,2836,1,1.85,2.3,
14,142,2918,-1,1.7,1.25,
14,143,3368,1,2.3,2.45,
14,144,3790,1,1.1,2.45,
14,145,3975,-1,2.15,2,
14,146,10704,1,2.15,2,
14,147,2259,-1,2.15,1.1,
14,148,4703,1,2,1.85,
14,149,3892,-1,1.55,1.1,
14,150,2285,1,1.1,0.95,
14,151,1677,-1,2,0,
14,152,5637,-1,1.7,2.15,
14,153,2500,1,1.1,2,
14,154,1617,-1,2,0.95,
14,155,6712,-1,2.15,1.85,
14,156,1661,-1,0.95,0,
14,157,2060,1,1.25,1.85,
14,158,4647,1,2.15,2.45,
14,159,3879,-1,2.3,1.55,
14,160,1887,-1,0.95,1.7,
14,161,2600,1,0.35,0,
14,162,2544,-1,2,2.45,
14,163,2006,-1,1.85,2.3,
14,164,2698,1,1.55,1.1,
14,165,3444,-1,1.7,2,
14,166,4399,-1,1.1,1.25,
14,167,3860,1,0.95,2,
14,168,1932,-1,1.55,2.15,
14,169,1409,-1,1.25,1.85,
14,170,18545,-1,2.6,2.45,
14,171,7308,1,2.15,0.8,
14,172,7756,1,1.85,0,
14,173,5929,1,2.15,1.1,
14,174,2317,-1,0.95,2.45,
14,175,2980,1,1.7,1.25,
14,176,2783,1,1.85,0,
14,177,2820,1,2.15,1.85,
14,178,2438,-1,2,1.85,
14,179,3368,1,1.7,1.7,
14,180,4929,1,2.15,2,
14,181,7561,-1,2.3,2.45,
14,182,5267,1,1.25,1.1,
14,183,2097,-1,1.1,2.45,
14,184,1957,1,2.15,0.35,
14,185,1623,-1,1.1,2,
14,186,3646,1,1.7,2.15,
14,187,3613,-1,2,1.7,
14,188,2404,-1,1.4,2,
14,189,2830,1,2.3,1.55,
14,190,8251,-1,2.15,2,
14,191,1878,-1,1.7,3,
14,192,1775,-1,1.1,0.95,
14,193,2765,1,2,0,
14,194,1924,-1,2.15,2.45,
14,195,5583,1,3,2.3,
14,196,4854,1,2,0.95,
14,197,1734,1,2.45,0,
14,198,1890,1,0.95,0,
14,199,2238,-1,0.95,1.55,
14,200,2797,1,1.1,1.25,
14,201,2269,1,1.55,2.3,
14,202,3319,1,0,0.35,
14,203,2630,1,0,2.45,
14,204,4088,1,2.15,1.7,
14,205,1656,-1,1.85,2,
14,206,2743,1,2.3,3,
14,207,2090,-1,1.7,0.8,
14,208,2497,1,1.1,2.15,
14,209,3452,1,0.95,1.85,
14,210,1385,-1,3,1.25,
14,211,1457,-1,2,1.7,
14,212,2053,1,1.7,2.3,
14,213,1590,-1,2,2,
14,214,1725,-1,2.3,1.7,
14,215,3526,-1,2,2.15,
14,216,1481,-1,2.45,2.6,
14,217,4475,-1,1.85,1.7,
14,218,2768,1,0.95,2,
14,219,2070,1,0,0.95,
14,220,1682,-1,1.4,0,
14,221,2798,-1,2.45,2.3,
14,222,2243,1,1.85,2.15,
14,223,2567,-1,2.6,1.55,
14,224,2400,-1,1.85,1.1,
14,225,1727,-1,2.15,0.95,
14,226,1333,-1,1.7,1.7,
14,227,1451,-1,2.45,2.15,
14,228,3171,-1,2,0.95,
14,229,1823,1,0,1.85,
14,230,1639,-1,1.7,2,
14,231,1509,1,0,1.7,
14,232,1789,1,0,2.45,
14,233,1537,-1,1.7,0,
14,234,1819,1,1.1,1.55,
14,235,1500,1,1.55,0.95,
14,236,1563,-1,2,1.25,
14,237,1570,-1,1.85,1.85,
14,238,1690,1,0.8,2.15,
14,239,1511,1,2,3,
15,0,5398,-1,0.35,0.95,
15,1,3681,-1,2,1.55,
15,2,10254,1,1.25,0.35,
15,3,7236,1,0,0,
15,4,3581,1,0,2.15,
15,5,6010,-1,1.4,0.8,
15,6,2128,-1,2.6,0.2,
15,7,3927,1,0.05,2.75,
15,8,2434,-1,3,0.35,
15,9,2731,1,0.05,2.15,
15,10,3431,-1,0.05,0,
15,11,5329,1,0.05,0.2,
15,12,2264,-1,2,0,
15,13,4634,-1,0.15,0.2,
15,14,4420,1,0.05,0.05,
15,15,4781,-1,1.55,0.95,
15,16,2578,1,0.15,1.55,
15,17,1730,-1,0.95,0.05,
15,18,4365,1,0.35,0.05,
15,19,6379,-1,2.15,0.95,
15,20,5608,1,0.95,0.05,
15,21,2135,-1,2.6,1.25,
15,22,4357,1,0.05,0.05,
15,23,5648,-1,0.35,0.2,
15,24,3293,1,0.05,1.55,
15,25,4716,-1,0.35,0.15,
15,26,2743,1,0.15,0.65,
15,27,9481,1,2,2,
15,28,2364,-1,0.05,0.35,
15,29,3458,1,0.05,0.65,
15,30,4363,-1,1.4,0.15,
15,31,4529,-1,2,0.05,
15,32,5752,-1,0.65,1.55,
15,33,3636,1,0.65,3,
15,34,2780,-1,0.05,0.15,
15,35,2434,1,0.05,1.55,
15,36,6016,1,0.65,2.9,
15,37,3525,1,0.35,0.8,
15,38,13395,-1,0.35,0.65,
15,39,4722,-1,0.95,0.05,
15,40,2497,1,0.05,1.55,
15,41,5320,-1,1.55,2,
15,42,2496,1,0.05,0.35,
15,43,4516,1,0.05,0.05,
15,44,2363,1,0.2,0.35,
15,45,1699,-1,0.95,0.35,
15,46,3480,-1,1.55,0.05,
15,47,1940,1,0.05,0.95,
15,48,1916,-1,1.85,0,
15,49,2446,-1,3,0.65,
15,50,2322,1,0.2,0,
15,51,2942,-1,0.05,0.35,
15,52,2542,1,0,2.9,
15,53,2003,1,0.65,2.75,
15,54,7000,-1,0.65,0.05,
15,55,2129,-1,0.05,0.95,
15,56,2525,-1,2.9,0.65,
15,57,3180,1,0,2,
15,58,3397,1,0.15,0.35,
15,59,2932,1,0.05,0.05,
15,60,3483,1,1.55,0.65,
15,61,2127,-1,0.65,0.05,
15,62,2335,1,0.05,3,
15,63,3477,-1,0,0.05,
15,64,2070,1,0.95,1.85,
15,65,1440,-1,0.95,0,
15,66,2658,-1,0.95,0.05,
15,67,1811,-1,0.05,0.05,
15,68,1474,-1,3,0.95,
15,69,1962,1,0.35,3,
15,70,2214,-1,0.8,0.35,
15,71,1670,-1,2,0.05,
15,72,5251,-1,2.15,0.2,
15,73,1904,1,0.05,2,
15,74,2916,-1,2.15,0.65,
15,75,2067,1,1.55,2.15,
15,76,4629,1,0.05,0.05,
15,77,1557,-1,0.65,0.05,
15,78,2256,1,0.2,0.15,
15,79,1809,1,0.15,1.4,
15,80,2537,1,1.55,0.15,
15,81,2947,1,0.95,2.15,
15,82,1619,-1,0.05,0.05,
15,83,1767,1,0,0.95,
15,84,1357,-1,3,0.05,
15,85,2327,1,1.25,2.6,
15,86,1295,-1,1.85,0.95,
15,87,1505,-1,0.35,1.25,
15,88,1539,-1,1.55,0.05,
15,89,1917,1,0.05,2,
15,90,1641,-1,2.15,0,
15,91,5970,1,2,2,
15,92,1399,-1,2.9,0,
15,93,2385,1,0.05,0.65,
15,94,2077,1,0.05,0.65,
15,95,3838,-1,0.65,0.35,
15,96,2894,-1,0,0,
15,97,3646,-1,0,0.2,
15,98,2923,1,0.05,0.95,
15,99,1362,-1,2.15,0.05,
15,100,1653,1,0,1.85,
15,101,2215,-1,0.05,0.05,
15,102,1651,-1,0.65,0.15,
15,103,1286,-1,2.75,0.05,
15,104,1974,1,0.95,3,
15,105,1744,1,0.65,2.15,
15,106,2072,1,0.95,1.55,
15,107,2848,1,0.2,2.15,
15,108,2096,1,0.15,0.05,
15,109,2181,1,0.05,0,
15,110,1402,-1,0.35,0.05,
15,111,2439,-1,1.55,0.05,
15,112,1342,-1,2.15,1.55,
15,113,1279,-1,2.75,0.65,
15,114,1656,-1,0.2,0.05,
15,115,3002,1,0.8,1.4,
15,116,1997,1,0.05,0.95,
15,117,2417,1,0,0.05,
15,118,1851,1,0.2,2.6,
15,119,5824,1,0.35,0.05,
15,120,2654,-1,0.05,2.75,
15,121,3196,-1,0.35,0.05,
15,122,2461,1,0.35,0.15,
15,123,5769,1,2,2,
15,124,1913,1,1.55,0.95,
15,125,2606,-1,0,0,
15,126,2965,1,2.6,1.25,
15,127,1649,-1,1.25,0.35,
15,128,5740,-1,0.05,0.05,
15,129,4941,1,0.35,0.65,
15,130,4544,1,1.4,0.8,
15,131,2454,1,0.35,0.2,
15,132,4667,-1,0.05,0.2,
15,133,2043,1,0.95,0.05,
15,134,1644,1,0.15,1.55,
15,135,2385,1,0.95,0.05,
15,136,1566,-1,0.05,2.15,
15,137,2514,-1,0.05,1.55,
15,138,2411,-1,0.95,0.05,
15,139,2439,1,2.15,0.95,
15,140,1917,1,2,0.05,
15,141,3602,1,1.4,0.15,
15,142,5816,-1,0.65,3,
15,143,3830,-1,0.05,0.05,
15,144,2843,-1,0.05,0.65,
15,145,2092,1,0.65,1.55,
15,146,1786,1,2.6,0.2,
15,147,1897,1,2,0,
15,148,5314,-1,0,2.15,
15,149,1594,-1,0.05,1.55,
15,150,2504,-1,0.15,0.65,
15,151,1865,1,3,0.35,
15,152,2905,1,0.05,0.35,
15,153,8727,1,2,1.55,
15,154,1724,1,0.05,0,
15,155,5087,-1,0.35,0.95,
15,156,2575,1,0.05,0.15,
15,157,2216,-1,0.35,0.8,
15,158,1398,-1,0.65,2.9,
15,159,5793,-1,0.15,0.2,
15,160,5859,-1,0.8,0.35,
15,161,3315,1,0.2,0,
15,162,2559,-1,3,0.95,
15,163,4225,-1,1.55,2,
15,164,2053,-1,0.65,0.05,
15,165,2050,1,0.2,0.15,
15,166,1325,-1,1.85,0,
15,167,1781,1,0.05,0.35,
15,168,2057,1,0.05,0.05,
15,169,2343,-1,0.05,0.35,
15,170,1676,1,0.05,2,
15,171,7734,-1,0.95,0.05,
15,172,1523,-1,2.15,0.2,
15,173,1913,1,0.05,3,
15,174,3258,1,0.05,0.05,
15,175,1869,1,1.55,0.65,
15,176,1785,1,0.05,0.95,
15,177,1864,-1,0.65,0.05,
15,178,1620,1,1.55,2.15,
15,179,1421,-1,0.05,0.05,
15,180,2821,1,0.05,1.55,
15,181,1837,-1,2,0.05,
15,182,2143,-1,0,0.05,
15,183,2303,1,0.35,3,
15,184,1635,-1,0.65,0.05,
15,185,1685,1,0.15,0.35,
15,186,1497,-1,0.05,0.95,
15,187,1461,1,0.65,2.75,
15,188,1409,-1,0.95,0,
15,189,1371,-1,1.55,0.05,
15,190,2282,1,0.05,0.05,
15,191,1547,1,0.2,0.35,
15,192,1484,1,0.15,1.4,
15,193,2392,1,0.95,0.35,
15,194,1386,-1,2.15,0.65,
15,195,1743,1,0,2.9,
15,196,1569,1,0.95,1.85,
15,197,1427,-1,3,0.65,
15,198,2294,1,0,2,
15,199,1490,-1,2.9,0.65,
15,200,4020,-1,0.95,2.15,
15,201,1513,-1,0.35,0.05,
15,202,1304,-1,1.55,0.15,
15,203,2368,1,2.15,0,
15,204,1642,1,2.9,0,
15,205,1489,-1,0.05,0.95,
15,206,1794,1,2.15,1.55,
15,207,2012,-1,0.65,2.15,
15,208,1882,1,1.55,0.05,
15,209,2656,1,0.2,0.05,
15,210,2675,1,0,0.2,
15,211,1889,1,0.65,0.15,
15,212,1732,1,0.35,1.25,
15,213,1888,1,0.35,0.05,
15,214,1828,-1,0.05,0.95,
15,215,1714,-1,0,0.05,
15,216,1339,-1,0.95,3,
15,217,1886,-1,0.65,0.35,
15,218,1558,-1,0.95,1.55,
15,219,1583,1,2.75,0.05,
15,220,1633,-1,0,1.85,
15,221,2514,1,2.75,0.65,
15,222,1934,-1,0.05,0,
15,223,2258,1,0,0,
15,224,1931,-1,0.05,0.65,
15,225,6284,-1,2,2,
15,226,1664,1,1.55,0.05,
15,227,5506,-1,0.2,2.15,
15,228,3341,-1,0.8,1.4,
15,229,1235,-1,1.25,2.6,
15,230,1593,1,3,0.05,
15,231,4282,1,0.05,0.05,
15,232,2380,-1,0,0.95,
15,233,1219,-1,0.2,2.6,
15,234,1495,1,1.85,0.95,
15,235,1786,1,0.05,0.05,
15,236,2240,-1,0.15,0.05,
15,237,1783,1,2.15,0.05,
15,238,2204,-1,0.05,2,
15,239,1922,-1,0.05,0.65,
16,0,5625,1,0.5,0.65,
16,1,3011,-1,0.5,0.2,
16,2,2836,-1,0.8,0.05,
16,3,2489,-1,0.35,0,
16,4,2592,1,0.35,0.2,
16,5,6979,1,0,0.2,
16,6,2678,-1,0.8,0,
16,7,2408,1,0,0.5,
16,8,5748,-1,0.05,0.2,
16,9,2369,-1,0.35,0,
16,10,2099,1,0.05,0.35,
16,11,2751,-1,0.65,0.05,
16,12,6040,1,0.5,0.35,
16,13,3337,-1,0.5,0.2,
16,14,3756,-1,0.95,0.2,
16,15,5066,-1,0.2,0.2,
16,16,1630,1,0,0.95,
16,17,4238,-1,0.8,0.95,
16,18,5891,-1,0.2,0.2,
16,19,5531,1,0.35,0.5,
16,20,4735,-1,0,0.05,
16,21,4583,-1,0.2,0.05,
16,22,2663,-1,0.5,0.2,
16,23,1640,1,0,0.2,
16,24,1840,1,0,0.95,
16,25,3607,1,0,0.05,
16,26,6972,1,0,0,
16,27,2353,-1,0.65,0,
16,28,1913,1,0.2,0.35,
16,29,1857,1,0,0.05,
16,30,2072,1,0,0.5,
16,31,3879,-1,0.05,0.05,
16,32,1814,-1,0.65,0.35,
16,33,1994,-1,0,0,
16,34,3409,-1,0.2,0,
16,35,1475,1,0,0.2,
16,36,6676,1,0.05,0,
16,37,3013,-1,0,0,
16,38,2350,-1,0.5,0,
16,39,2477,1,0,0.35,
16,40,3202,-1,0.2,0.95,
16,41,6774,1,0.65,0.5,
16,42,1737,-1,0,0.8,
16,43,1977,-1,0,0.05,
16,44,4340,1,0.5,0.05,
16,45,1853,-1,0,0,
16,46,2154,-1,0.2,0.95,
16,47,3933,1,0.2,0,
16,48,2253,1,0.35,0.05,
16,49,5243,-1,0,0,
16,50,3433,-1,0.05,0,
16,51,2245,-1,0.05,0.2,
16,52,1557,1,0.95,0,
16,53,2176,-1,0.2,0.2,
16,54,2211,-1,0,0.8,
16,55,7038,1,0.2,0.05,
16,56,5009,-1,0.35,0.35,
16,57,1475,-1,0,0,
16,58,2250,-1,0.05,0.65,
16,59,3887,-1,0.05,0.05,
16,60,1423,-1,0.35,0.65,
16,61,2410,1,0,0,
16,62,4945,1,0.2,0.8,
16,63,5351,-1,0.2,0.05,
16,64,2387,-1,0,0.2,
16,65,2937,-1,0,0.5,
16,66,3483,1,0.35,0,
16,67,2290,1,0.35,0.05,
16,68,2067,-1,0.2,0.5,
16,69,2748,1,0.2,0,
16,70,2044,-1,0.35,0.8,
16,71,3660,-1,0.2,0.5,
16,72,1384,-1,0,0.35,
16,73,1821,1,0.05,0,
16,74,2800,1,0.5,0.2,
16,75,2268,1,0.2,0,
16,76,1727,-1,0,0.2,
16,77,1781,1,0.2,0.35,
16,78,2045,-1,0,0.5,
16,79,1715,1,0.35,0,
16,80,1774,1,0.2,0.5,
16,81,1889,-1,0.2,0.35,
16,82,1475,1,0,0.35,
16,83,3620,-1,0,0,
16,84,4655,1,0.2,0,
16,85,1990,-1,0.05,0,
16,86,1708,1,0,0,
16,87,1510,1,0.35,0.35,
16,88,1843,-1,0.35,0,
16,89,3003,-1,0.65,0.5,
16,90,1585,1,0,0.5,
16,91,1568,-1,0.95,0,
16,92,1692,1,0.2,0.5,
16,93,1234,1,0.2,0.8,
16,94,1422,-1,0.35,0.05,
16,95,1365,1,0.2,0.05,
16,96,1767,-1,0,0.2,
16,97,4305,-1,0.35,0,
16,98,1648,1,0,0.05,
16,99,1798,1,0,0.8,
16,100,1422,1,0.2,0.2,
16,101,2184,-1,0.5,0.2,
16,102,4273,-1,0,0,
16,103,1511,1,0.2,0.95,
16,104,3052,1,0.35,0.8,
16,105,2488,1,0.05,0,
16,106,2853,1,0,0.2,
16,107,2000,-1,0.5,0.05,
16,108,1609,1,0,0.5,
16,109,2723,-1,0.05,0.05,
16,110,3316,-1,0.2,0.05,
16,111,1875,-1,0.2,0,
16,112,1548,1,0.2,0.95,
16,113,1897,1,0.05,0.2,
16,114,1611,1,0.05,0.65,
16,115,1580,1,0.35,0.65,
16,116,2759,1,0,0,
16,117,3632,-1,0.35,0.05,
16,118,2008,1,0,0.8,
16,119,6381,1,0.2,0,
16,120,3047,1,0.05,0.2,
16,121,1796,-1,0,0.35,
16,122,1575,1,0.05,0,
16,123,4728,-1,0.2,0.2,
16,124,1710,-1,0.95,0.2,
16,125,1986,1,0.5,0,
16,126,2761,1,0.35,0.2,
16,127,1843,-1,0,0,
16,128,1576,1,0.8,0,
16,129,3296,-1,0.95,0.8,
16,130,1381,1,0,0,
16,131,1658,-1,0.2,0,
16,132,2028,-1,0.05,0.35,
16,133,2107,1,0.2,0,
16,134,1469,1,0.95,0,
16,135,1982,1,0,0,
16,136,1591,1,0.05,0,
16,137,2348,1,0.8,0.2,
16,138,1506,1,0.2,0,
16,139,1585,-1,0.05,0.5,
16,140,1997,-1,0.2,0.5,
16,141,1349,-1,0,0.35,
16,142,2011,1,0.35,0.35,
16,143,1726,1,0.05,0.8,
16,144,1718,1,0.95,0,
16,145,2467,-1,0,0.2,
16,146,2025,1,0.5,0,
16,147,2975,-1,0,0.2,
16,148,3665,-1,0.05,0.2,
16,149,5711,-1,0.2,0.05,
16,150,1827,-1,0,0.05,
16,151,2697,-1,0.35,0.5,
16,152,2819,1,0.8,0.35,
16,153,3166,-1,0,0,
16,154,2915,1,0,0,
16,155,2512,-1,0,0.65,
16,156,1941,1,0.5,0.35,
16,157,4040,-1,0.2,0.5,
16,158,1901,1,0.5,0,
16,159,1230,-1,0,0.95,
16,160,3125,-1,0,0,
16,161,1659,-1,0.95,0,
16,162,1512,-1,0.8,0.2,
16,163,3430,1,0.05,0.2,
16,164,1727,1,0.35,0.5,
16,165,1074,-1,0.05,0,
16,166,1689,-1,0.95,0,
16,167,1883,1,0,0.65,
16,168,5919,-1,0,0.2,
16,169,3246,1,0,0.2,
16,170,1562,1,0.2,0,
16,171,1391,-1,0.35,0.35,
16,172,1656,1,0,0.35,
16,173,1455,1,0.2,0.05,
16,174,1239,-1,0.5,0,
16,175,2428,1,0,0,
16,176,1316,-1,0.2,0,
16,177,1329,1,0,0.95,
16,178,1224,-1,0.95,0.2,
16,179,2683,1,0,0,
16,180,2001,1,0.05,0.5,
16,181,2319,1,0,0.35,
16,182,1274,-1,0.5,0,
16,183,1627,1,0.2,0.5,
16,184,2387,1,0.95,0.8,
16,185,1711,1,0.05,0.8,
16,186,1138,-1,0.05,0,
16,187,1113,-1,0.2,0,
16,188,1730,1,0.2,0.5,
16,189,2343,-1,0.5,0.35,
16,190,1093,-1,0.35,0.2,
16,191,5067,1,0,0.05,
16,192,2320,-1,0.8,0.35,
16,193,2060,-1,0.5,0,
16,194,1437,-1,0.8,0,
16,195,1630,1,0,0,
16,196,2931,1,0.2,0.2,
16,197,3606,-1,0.05,0.2,
16,198,1686,1,0.05,0.35,
16,199,1836,1,0,0,
16,200,3193,1,0,0.05,
16,201,1312,1,0.95,0.2,
16,202,1659,1,0.5,0,
16,203,1695,-1,0.05,0.35,
16,204,1424,-1,0.35,0.2,
16,205,1682,1,0,0,
16,206,1391,-1,0,0.35,
16,207,2446,-1,0,0.05,
16,208,1306,-1,0,0.95,
16,209,1803,1,0,0,
16,210,1783,-1,0.5,0.65,
16,211,2232,1,0.2,0.2,
16,212,2183,1,0.65,0.05,
16,213,2370,1,0,0.5,
16,214,1935,1,0.8,0.05,
16,215,1602,1,0.5,0.2,
16,216,1590,1,0.8,0,
16,217,2116,-1,0,0.5,
16,218,3692,1,0,0.2,
16,219,2845,1,0.05,0,
16,220,2089,1,0.2,0.2,
16,221,1893,1,0.8,0.95,
16,222,1566,1,0.5,0.2,
16,223,2001,-1,0,0.2,
16,224,1690,-1,0,0.2,
16,225,1360,-1,0.35,0.5,
16,226,4323,1,0.5,0.35,
16,227,1986,1,0.05,0.05,
16,228,1937,1,0.65,0,
16,229,2501,1,0.35,0,
16,230,1366,-1,0.05,0.2,
16,231,1967,1,0.35,0,
16,232,2263,1,0,0,
16,233,2189,1,0.65,0.35,
16,234,2452,1,0.5,0.2,
16,235,1208,-1,0,0.95,
16,236,1831,-1,0,0.05,
16,237,2775,1,0.2,0.05,
16,238,3291,-1,0.2,0.35,
16,239,1618,1,0.2,0,
17,0,3613,1,0.05,1.4,
17,1,2184,1,0.95,1.55,
17,2,2622,1,1.4,1.85,
17,3,2160,1,0.35,1.55,
17,4,2022,-1,1.55,0,
17,5,1503,-1,2.75,2.3,
17,6,1644,-1,1.7,1.4,
17,7,2063,1,0.65,1.85,
17,8,5256,1,0.5,0.65,
17,9,1899,1,0,1.7,
17,10,2077,1,0,2,
17,11,1437,-1,1.85,0,
17,12,1179,-1,1.7,0,
17,13,3993,1,0,0,
17,14,2048,1,1.85,1.55,
17,15,2449,-1,1.7,0.8,
17,16,4422,1,1.25,1.7,
17,17,2228,-1,2,0.35,
17,18,1824,1,0,1.85,
17,19,1981,1,1.55,1.55,
17,20,1806,-1,1.55,0.95,
17,21,5094,-1,0,0,
17,22,4230,-1,0.35,0.2,
17,23,1933,1,0,0.95,
17,24,2190,-1,1.85,1.1,
17,25,1817,1,2,1.7,
17,26,1841,1,0,1.25,
17,27,2065,-1,1.85,0.5,
17,28,1862,-1,2,1.85,
17,29,3807,-1,0.8,0.2,
17,30,1309,-1,2,0.2,
17,31,1948,1,1.7,1.85,
17,32,1893,1,2.3,1.1,
17,33,6052,1,0.35,0.8,
17,34,2050,1,0.95,2.75,
17,35,2261,1,2,1.7,
17,36,1836,1,0.2,1.4,
17,37,2129,1,0,0.8,
17,38,6925,-1,1.1,1.1,
17,39,1485,-1,1.85,1.55,
17,40,2368,-1,0,1.25,
17,41,1790,1,1.85,1.55,
17,42,4283,1,0.8,0.2,
17,43,1936,-1,1.4,1.85,
17,44,2561,1,1.1,1.1,
17,45,2634,1,1.7,0,
17,46,3844,1,1.55,0.95,
17,47,2388,-1,1.55,1.55,
17,48,2878,-1,0,0.95,
17,49,2037,-1,0.35,0.8,
17,50,3801,-1,1.85,1.55,
17,51,1999,-1,2,1.7,
17,52,1938,-1,0.95,2.75,
17,53,1981,-1,0,1.7,
17,54,2402,1,1.85,0,
17,55,5550,-1,0.2,1.4,
17,56,1902,1,2,0.35,
17,57,1958,1,0,0,
17,58,1852,-1,0.65,1.85,
17,59,1798,1,1.55,0,
17,60,1519,-1,0,0.8,
17,61,1506,1,1.85,0.5,
17,62,7039,-1,0.95,1.55,
17,63,1089,-1,1.25,1.7,
17,64,1857,1,0.5,0.65,
17,65,1632,1,1.85,1.1,
17,66,3229,-1,1.7,1.85,
17,67,4503,-1,0,1.85,
17,68,1549,-1,2,1.7,
17,69,3358,1,2,0.2,
17,70,1885,-1,0.35,1.55,
17,71,1451,-1,0,2,
17,72,1908,-1,2.3,1.1,
17,73,5337,1,1.7,1.4,
17,74,8376,1,1.7,0.8,
17,75,1847,1,0,0,
17,76,1912,1,2,1.85,
17,77,4241,-1,0.05,1.4,
17,78,3685,1,2.75,2.3,
17,79,2400,1,0.35,0.2,
17,80,7736,1,0,2,
17,81,2374,1,0.65,0.5,
17,82,4206,1,0.05,0.95,
17,83,1951,1,2.3,2.75,
17,84,3179,-1,1.55,0.35,
17,85,1698,-1,1.1,2.3,
17,86,1479,-1,1.55,0.95,
17,87,2854,1,0.8,1.85,
17,88,1524,-1,1.7,1.25,
17,89,1705,1,1.55,0.8,
17,90,2357,1,0,1.1,
17,91,2471,1,0.8,1.85,
17,92,1658,1,0.5,1.85,
17,93,2018,1,1.55,1.7,
17,94,2153,1,0,0,
17,95,2505,-1,2.75,0.95,
17,96,1749,-1,1.85,1.85,
17,97,1330,-1,1.25,0,
17,98,2261,1,0,1.7,
17,99,1276,-1,0.8,0,
17,100,1850,-1,1.7,2,
17,101,1338,-1,1.85,0.65,
17,102,1802,1,0,1.7,
17,103,1548,-1,1.85,0.8,
17,104,1653,1,1.1,2,
17,105,1296,-1,1.55,1.55,
17,106,2316,1,1.1,1.1,
17,107,1800,1,0,1.55,
17,108,1952,-1,2,0,
17,109,2198,1,1.4,1.55,
17,110,8469,1,2,1.85,
17,111,3221,1,1.7,2,
17,112,2501,1,0,0.95,
17,113,3300,-1,0,0,
17,114,2085,-1,1.4,0.05,
17,115,2036,-1,1.7,0,
17,116,2634,-1,1.55,1.85,
17,117,1993,1,0,1.4,
17,118,2085,1,1.4,1.7,
17,119,2438,-1,0.8,0.8,
17,120,5568,-1,2,1.85,
17,121,2958,-1,1.4,1.55,
17,122,1213,-1,1.1,2,
17,123,1154,-1,0.5,1.85,
