parcode,trial,rt,choice,item_left,item_right
0,0,3327,1,0.95,2.0
0,1,3424,1,2.3,1.7
0,2,3691,1,1.7,1.25
0,3,8144,-1,1.55,2.3
0,4,6559,-1,2.0,2.0
0,5,5595,-1,0.65,1.25
0,6,2470,1,1.55,1.1
0,7,6091,1,0.95,0.65
0,8,4669,1,1.55,1.7
0,9,4001,1,2.0,1.1
0,10,3301,-1,1.1,1.1
0,11,2867,-1,1.4,2.0
0,12,3117,1,1.85,1.1
0,13,10424,1,1.7,2.0
0,14,2754,-1,1.25,1.55
0,15,5836,1,2.0,1.7
0,16,3931,1,1.85,1.7
0,17,3602,1,1.55,0.8
0,18,5674,-1,1.7,1.4
0,19,2567,1,1.7,1.1
0,20,2097,-1,1.1,1.55
0,21,3641,-1,0.95,0.8
0,22,4550,1,1.7,1.55
0,23,2973,1,1.7,1.4
0,24,2824,-1,1.25,1.7
0,25,3643,-1,2.0,2.3
0,26,2188,1,1.85,0.65
0,27,3321,1,1.85,1.1
0,28,6784,-1,1.85,2.0
0,29,2314,-1,1.1,2.3
0,30,2952,-1,1.1,2.0
0,31,8388,-1,1.25,1.4
0,32,5341,1,1.25,1.85
0,33,2183,1,1.1,0.95
0,34,3207,-1,0.95,1.85
0,35,3224,1,1.1,1.55
0,36,3476,1,1.7,1.85
0,37,2295,-1,0.65,1.7
0,38,3513,-1,1.55,2.3
0,39,4458,1,1.1,0.95
0,40,2348,1,1.55,1.1
0,41,2809,-1,1.4,1.7
0,42,1992,-1,1.1,1.7
0,43,1534,1,1.85,0.95
0,44,3023,-1,0.95,2.3
0,45,3452,-1,2.0,2.0
0,46,3961,1,2.0,1.55
0,47,2636,1,2.0,1.1
0,48,1898,1,2.0,1.1
0,49,1725,1,2.3,1.1
0,50,4336,1,2.3,2.0
0,51,2037,-1,0.95,1.1
0,52,2479,-1,0.35,1.85
0,53,3389,1,2.3,1.55
0,54,2339,-1,1.7,2.0
0,55,3609,-1,1.85,1.85
0,56,7371,1,2.3,1.55
0,57,2520,-1,1.55,2.0
0,58,1761,1,2.0,1.4
0,59,2593,1,1.85,1.7
0,60,5772,1,1.55,1.1
0,61,1945,-1,1.1,1.85
0,62,1621,1,1.1,0.35
0,63,2952,1,1.55,1.4
0,64,2725,-1,1.25,2.0
0,65,2591,-1,1.1,1.55
0,66,3523,1,1.4,1.1
0,67,7082,-1,1.25,1.1
0,68,4066,1,1.55,1.25
0,69,2602,-1,1.25,2.0
0,70,3239,1,1.4,1.25
0,71,1943,-1,1.55,1.55
0,72,3627,-1,1.85,2.0
0,73,6245,-1,1.7,1.55
0,74,4574,1,1.85,1.55
0,75,4327,1,1.7,0.65
0,76,6247,-1,1.1,2.0
0,77,2353,-1,1.1,1.25
0,78,4758,-1,0.95,1.55
0,79,2715,-1,1.1,1.85
0,80,1573,-1,0.35,1.1
0,81,1712,1,1.85,1.85
0,82,2040,-1,1.55,1.7
0,83,2372,1,2.0,1.85
0,84,4185,-1,2.0,1.7
0,85,3429,1,1.1,1.25
0,86,2044,-1,1.4,1.55
0,87,2542,1,2.0,0.95
0,88,1576,1,2.0,1.25
0,89,2497,-1,1.1,1.1
0,90,2511,1,1.85,1.1
0,91,1564,1,1.55,1.55
0,92,1616,1,1.55,0.95
0,93,2987,1,2.0,1.7
0,94,3625,-1,1.7,2.0
0,95,2226,-1,1.1,2.0
0,96,2179,-1,0.8,1.55
0,97,1847,-1,0.65,1.85
0,98,1569,1,1.25,0.65
0,99,2371,-1,1.1,2.0
0,100,2482,-1,1.1,1.85
0,101,2747,-1,0.95,1.1
0,102,2918,1,2.0,1.55
0,103,3706,1,2.0,1.85
0,104,3625,1,2.0,1.1
0,105,3938,-1,0.8,0.95
0,106,2329,-1,0.65,0.95
0,107,2028,-1,1.25,1.7
0,108,1665,1,1.85,0.35
0,109,1580,1,2.3,0.95
0,110,4189,-1,1.7,2.3
0,111,2626,-1,1.7,1.85
0,112,3783,1,1.7,1.25
0,113,2920,-1,1.55,2.0
0,114,4843,-1,1.25,1.1
0,115,5275,-1,1.4,1.7
0,116,5630,-1,1.1,1.4
0,117,1871,1,2.0,1.25
0,118,4173,1,1.85,1.25
0,119,2828,-1,1.55,1.85
1,0,4960,-1,0.2,0.5
1,1,6438,-1,0.5,0.65
1,2,5125,-1,0.2,0.65
1,3,4268,-1,0.2,0.5
1,4,4726,1,0.5,0.35
1,5,5392,1,0.5,0.35
1,6,3471,1,0.2,0.0
1,7,4299,1,0.5,0.35
1,8,4299,1,0.5,0.5
1,9,4088,-1,0.5,0.65
1,10,3147,-1,0.0,0.2
1,11,3923,-1,0.0,0.2
1,12,3889,-1,0.35,0.65
1,13,4426,-1,0.0,0.2
1,14,3035,1,0.65,0.0
1,15,4915,1,0.2,0.2
1,16,5395,1,0.5,0.35
1,17,5623,1,0.35,0.65
1,18,6208,1,0.35,0.2
1,19,2323,1,0.2,0.0
1,20,3491,-1,0.35,0.2
1,21,5468,1,0.65,0.2
1,22,6446,-1,0.5,0.65
1,23,4541,1,0.35,0.35
1,24,3991,-1,0.0,0.8
1,25,4235,-1,0.5,0.65
1,26,5489,1,0.65,0.65
1,27,6380,-1,0.5,0.8
1,28,3385,1,0.5,0.05
1,29,4479,1,0.5,0.5
1,30,3546,-1,0.2,0.65
1,31,3266,1,0.8,0.2
1,32,2267,1,0.2,0.05
1,33,3808,-1,0.2,0.35
1,34,4033,-1,0.65,0.35
1,35,3093,-1,0.2,0.5
1,36,3486,1,0.05,0.35
1,37,5401,-1,0.05,0.5
1,38,2833,-1,0.5,0.05
1,39,1746,-1,0.0,0.5
1,40,2741,1,0.5,0.2
1,41,2186,-1,0.0,0.65
1,42,2803,-1,0.05,0.2
1,43,1702,-1,0.0,0.35
1,44,2152,-1,0.2,0.2
1,45,1414,1,0.2,0.65
1,46,1979,1,0.5,0.35
1,47,1929,1,0.5,0.35
1,48,1618,-1,0.0,0.65
1,49,1534,-1,0.2,0.0
1,50,1384,-1,0.35,0.5
1,51,1343,1,0.2,0.0
1,52,1683,1,0.2,0.0
1,53,2062,1,0.65,0.05
1,54,1539,1,0.65,0.5
1,55,1601,1,0.65,0.65
1,56,1858,-1,0.05,0.2
1,57,1467,1,0.5,0.5
1,58,1867,-1,0.65,0.65
1,59,1450,-1,0.2,0.8
1,60,2378,-1,0.65,0.5
1,61,2138,1,0.35,0.5
1,62,1414,-1,0.0,0.2
1,63,1971,-1,0.65,0.35
1,64,1983,1,0.65,0.2
1,65,2258,1,0.65,0.2
1,66,1400,1,0.5,0.2
1,67,1192,1,0.5,0.0
1,68,1291,1,0.65,0.2
1,69,1035,1,0.35,0.2
1,70,2068,1,0.05,0.5
1,71,1164,1,0.5,0.0
1,72,1482,-1,0.65,0.5
1,73,1122,1,0.35,0.0
1,74,1763,1,0.05,0.2
1,75,2008,1,0.65,0.35
1,76,1831,1,0.05,0.5
1,77,2109,-1,0.35,0.5
1,78,1709,1,0.65,0.5
1,79,1236,-1,0.5,0.8
1,80,1524,1,0.2,0.0
1,81,1581,1,0.65,0.5
1,82,1901,1,0.2,0.05
1,83,1353,-1,0.35,0.5
1,84,1977,1,0.35,0.0
1,85,2311,-1,0.65,0.65
1,86,4034,1,0.35,0.2
1,87,4496,-1,0.05,0.65
1,88,3360,1,0.65,0.2
1,89,2518,1,0.2,0.05
1,90,2633,-1,0.5,0.0
1,91,1823,-1,0.0,0.2
1,92,1877,-1,0.35,0.5
1,93,1594,-1,0.0,0.2
1,94,1612,-1,0.35,0.5
1,95,1802,-1,0.0,0.5
1,96,1411,-1,0.2,0.65
1,97,1388,-1,0.0,0.5
1,98,1358,1,0.2,0.35
1,99,1781,-1,0.5,0.05
1,100,1297,-1,0.8,0.5
1,101,1113,-1,0.2,0.65
1,102,2545,-1,0.5,0.2
1,103,1569,-1,0.35,0.05
1,104,2018,-1,0.5,0.65
1,105,1145,1,0.5,0.2
1,106,1527,-1,0.2,0.35
1,107,1212,1,0.65,0.5
1,108,1160,1,0.5,0.65
1,109,1098,1,0.8,0.5
1,110,1057,-1,0.2,0.65
1,111,838,1,0.8,0.0
1,112,1373,-1,0.5,0.5
1,113,1476,-1,0.0,0.35
1,114,1187,-1,0.2,0.5
1,115,1047,1,0.35,0.65
1,116,1063,1,0.65,0.2
1,117,861,-1,0.35,0.35
1,118,1220,-1,0.2,0.35
1,119,757,1,0.65,0.0
2,0,4203,-1,1.1,2.3
2,1,4734,1,2.75,2.15
2,2,4187,-1,0.5,2.6
2,3,2945,-1,0.0,0.0
2,4,3554,1,2.3,0.95
2,5,5791,1,1.1,0.2
2,6,630,-1,1.1,1.25
2,7,3815,-1,0.95,1.95
2,8,5328,1,0.65,0.0
2,9,6404,-1,2.75,2.15
2,10,2052,-1,0.0,2.75
2,11,5112,1,1.7,1.25
2,12,2769,-1,2.0,3.0
2,13,3526,-1,2.6,2.0
2,14,6337,1,1.25,0.35
2,15,2655,-1,0.5,2.9
2,16,2385,1,0.95,0.5
2,17,1899,1,0.35,0.5
2,18,2165,1,1.1,0.0
2,19,2011,1,0.95,0.0
2,20,4543,1,0.0,0.0
2,21,3104,-1,0.35,3.0
2,22,3357,1,0.35,0.05
2,23,2669,-1,0.0,1.4
2,24,3132,1,0.65,0.0
2,25,8554,1,0.95,0.65
2,26,4247,-1,3.0,2.3
2,27,4917,-1,0.2,1.25
2,28,5040,1,0.35,1.1
2,29,2385,1,2.3,0.0
2,30,2413,-1,0.2,1.95
2,31,2459,-1,0.95,2.3
2,32,4277,-1,1.25,0.35
2,33,3671,1,0.05,0.2
2,34,1866,1,3.0,0.0
2,35,2340,-1,0.5,0.65
2,36,4751,-1,0.0,2.75
2,37,5185,1,0.0,0.0
2,38,2073,1,2.0,0.05
2,39,2031,-1,0.0,2.0
2,40,1964,-1,1.25,2.15
2,41,2323,1,2.0,0.0
2,42,2812,1,1.25,0.2
2,43,2225,-1,0.0,0.0
2,44,1786,1,1.95,0.2
2,45,1676,-1,0.2,0.05
2,46,2207,-1,0.0,0.35
2,47,1493,-1,0.0,0.5
2,48,5068,1,2.15,0.5
2,49,3112,1,2.15,2.75
2,50,4139,1,0.5,1.7
2,51,2312,1,2.9,0.5
2,52,2852,-1,0.0,0.35
2,53,3026,1,2.0,2.6
2,54,3254,-1,0.65,2.3
2,55,2383,-1,0.0,2.15
2,56,2269,1,2.75,0.0
2,57,1511,-1,0.05,2.75
2,58,14774,-1,1.25,1.7
2,59,2133,1,2.15,0.0
2,60,3904,1,2.9,1.1
2,61,3875,-1,0.2,0.2
2,62,2880,-1,0.0,0.65
2,63,1806,-1,0.0,0.65
2,64,2263,-1,0.35,2.85
2,65,7731,1,2.6,0.5
2,66,3051,-1,0.35,1.25
2,67,2542,-1,0.5,2.6
2,68,3003,1,2.3,0.95
2,69,2876,1,2.6,2.75
2,70,1992,1,1.1,0.65
2,71,2447,-1,0.2,1.1
2,72,4018,-1,0.0,2.3
2,73,3263,1,0.35,1.25
2,74,2281,-1,0.0,0.0
2,75,6951,-1,0.35,0.5
2,76,3526,1,1.95,0.95
2,77,2094,1,3.0,0.35
2,78,3462,-1,2.3,2.85
2,79,1916,1,1.1,1.4
2,80,4374,-1,1.25,1.1
2,81,1255,1,0.0,3.0
2,82,2214,1,0.5,0.0
2,83,1485,1,2.75,0.05
2,84,1662,1,0.35,0.0
2,85,1511,-1,0.5,2.15
2,86,2811,-1,2.15,2.75
2,87,2105,1,2.75,0.0
2,88,1197,-1,0.0,2.15
2,89,1095,-1,0.0,1.1
2,90,2910,-1,1.7,0.5
2,91,430,-1,0.0,0.95
2,92,2373,1,2.3,0.0
2,93,1275,-1,1.1,2.9
2,94,2077,-1,0.65,0.95
2,95,4286,1,2.3,1.1
2,96,3626,-1,2.3,3.0
2,97,2098,-1,2.75,2.6
2,98,2018,-1,0.5,0.35
2,99,2155,-1,1.1,0.35
2,100,1312,-1,0.0,2.3
2,101,2025,-1,0.0,0.0
2,102,2711,-1,0.35,0.0
2,103,1879,1,0.05,0.35
2,104,2481,1,2.3,0.65
2,105,1066,-1,1.4,1.1
2,106,1863,1,3.0,2.0
2,107,6252,-1,0.5,0.35
2,108,1516,1,0.65,0.5
2,109,1693,-1,0.05,2.0
2,110,1415,1,2.6,0.5
2,111,1477,1,2.15,0.0
2,112,1115,-1,0.65,1.1
2,113,2117,-1,0.95,2.3
2,114,3668,1,1.4,0.0
2,115,1212,1,2.15,1.25
2,116,1658,1,2.85,0.35
2,117,1081,-1,0.5,0.95
2,118,1605,1,0.2,0.2
2,119,2735,1,2.85,2.3
3,0,4777,-1,0.0,0.95
3,1,7090,-1,0.05,0.95
3,2,4338,1,1.55,0.05
3,3,11097,-1,1.1,0.95
3,4,5289,-1,0.95,1.1
3,5,3754,1,1.1,0.5
3,6,3146,-1,0.35,1.1
3,7,2635,1,1.7,1.4
3,8,3422,-1,0.0,0.5
3,9,9677,1,2.45,1.1
3,10,2342,-1,0.0,0.05
3,11,2643,1,1.25,0.5
3,12,2593,-1,0.95,1.55
3,13,2975,-1,0.0,0.05
3,14,3094,-1,0.95,1.1
3,15,2419,1,0.65,0.0
3,16,9847,1,1.4,0.95
3,17,2667,1,0.95,0.05
3,18,2451,1,0.65,0.0
3,19,1832,-1,0.0,0.05
3,20,4519,-1,0.05,0.95
3,21,2357,-1,0.05,1.1
3,22,2320,-1,0.35,0.8
3,23,3029,-1,0.35,1.55
3,24,3476,-1,0.65,1.7
3,25,2531,1,0.95,0.0
3,26,4449,-1,0.8,0.95
3,27,2778,1,1.4,0.0
3,28,3198,1,1.25,0.0
3,29,2604,1,0.95,0.0
3,30,1736,-1,0.0,1.55
3,31,1528,-1,0.0,1.1
3,32,7987,-1,0.0,0.0
3,33,1808,-1,0.05,0.65
3,34,7586,1,0.95,0.95
3,35,2152,1,0.95,0.0
3,36,5162,1,0.95,1.25
3,37,4705,1,0.95,0.05
3,38,8093,-1,0.95,2.3
3,39,8516,-1,0.35,0.8
3,40,8523,1,1.55,1.1
3,41,2491,1,0.95,0.05
3,42,2304,-1,0.0,0.65
3,43,2587,1,1.4,0.05
3,44,2710,1,2.3,0.65
3,45,4325,1,0.65,0.05
3,46,2295,1,0.65,0.05
3,47,2445,-1,0.8,0.65
3,48,3839,1,1.55,0.95
3,49,2748,1,1.55,0.35
3,50,2838,1,0.65,0.5
3,51,5352,1,1.55,2.45
3,52,3472,-1,0.65,1.4
3,53,1811,-1,0.8,0.8
3,54,3039,1,0.5,0.0
3,55,2841,1,0.35,0.05
3,56,11103,1,0.8,0.35
3,57,1573,-1,0.65,2.45
3,58,1916,1,1.55,0.0
3,59,3020,1,0.05,0.0
3,60,3972,1,2.3,0.95
3,61,3019,-1,0.8,0.95
3,62,6740,1,0.5,1.1
3,63,2329,1,0.95,0.8
3,64,4697,-1,1.1,2.45
3,65,6004,-1,0.35,0.8
3,66,2018,1,1.1,0.0
3,67,2470,1,0.2,1.55
3,68,2635,1,1.25,1.4
3,69,1999,1,1.1,0.05
3,70,3486,-1,0.65,1.1
3,71,1772,1,1.1,0.95
3,72,3926,1,0.95,0.05
3,73,2001,-1,0.0,0.95
3,74,2195,-1,1.4,1.7
3,75,2002,-1,0.0,1.4
3,76,1932,1,0.05,0.0
3,77,2868,1,0.65,2.45
3,78,2314,-1,0.2,0.65
3,79,2149,1,0.95,1.55
3,80,4482,1,0.05,0.65
3,81,2049,1,0.65,0.8
3,82,2621,-1,1.1,0.65
3,83,3313,-1,1.1,0.95
3,84,1616,-1,1.55,0.95
3,85,1869,1,2.45,0.65
3,86,4355,1,0.8,0.35
3,87,1976,-1,0.05,0.95
3,88,1653,-1,0.05,0.95
3,89,2198,-1,0.5,1.25
3,90,1692,1,0.8,0.35
3,91,1836,-1,0.0,0.95
3,92,1472,1,0.8,0.8
3,93,4448,1,2.45,0.65
3,94,1249,-1,0.05,1.55
3,95,5278,-1,0.5,0.65
3,96,2021,-1,0.0,0.95
3,97,7385,1,0.95,0.8
3,98,2576,-1,1.25,0.95
3,99,1866,1,0.65,0.05
3,100,4400,1,0.95,1.1
3,101,1694,1,0.05,0.0
3,102,2222,1,2.45,1.55
3,103,1475,-1,0.05,1.4
3,104,4503,-1,1.1,1.55
3,105,1636,1,0.65,0.2
3,106,1509,-1,0.0,0.65
3,107,1361,-1,1.55,0.2
3,108,1715,-1,0.05,0.35
3,109,2088,1,1.4,0.65
3,110,1992,1,1.1,0.35
3,111,2412,1,1.7,0.65
3,112,2200,1,0.95,0.0
3,113,3664,-1,0.65,2.3
3,114,9602,1,1.4,1.25
3,115,2676,-1,0.95,1.4
3,116,1788,1,0.0,0.0
3,117,1656,-1,0.0,1.25
3,118,1366,-1,0.05,0.65
3,119,3515,-1,0.95,0.95
4,0,5222,1,0.0,0.0
4,1,3005,1,0.65,0.0
4,2,4264,-1,0.0,0.0
4,3,3576,-1,0.5,0.95
4,4,4101,1,0.8,0.65
4,5,3769,-1,0.0,0.8
4,6,5630,-1,0.0,0.0
4,7,7975,1,0.5,0.0
4,8,3312,-1,0.0,0.65
4,9,6307,-1,0.05,0.2
4,10,2421,-1,0.0,0.8
4,11,3952,1,0.6,0.35
4,12,3593,-1,0.0,0.05
4,13,2755,1,1.1,0.0
4,14,2761,1,0.2,0.0
4,15,2862,-1,0.35,0.8
4,16,3387,1,0.05,0.0
4,17,7527,-1,0.5,0.65
4,18,2628,-1,0.0,0.0
4,19,2234,-1,0.0,0.05
4,20,7720,-1,0.5,1.1
4,21,2831,-1,0.0,0.8
4,22,9213,1,0.0,0.0
4,23,2965,-1,0.0,0.95
4,24,2774,1,0.05,0.0
4,25,5143,-1,0.0,0.0
4,26,2852,-1,0.0,1.1
4,27,4989,-1,0.0,0.5
4,28,3957,1,0.5,0.0
4,29,2622,-1,0.0,0.95
4,30,3354,1,1.1,0.05
4,31,1733,1,0.6,0.0
4,32,3966,-1,0.0,0.0
4,33,5645,-1,0.05,0.0
4,34,7195,-1,0.0,0.0
4,35,1676,1,1.1,0.0
4,36,1211,1,0.8,0.5
4,37,1440,1,0.0,0.0
4,38,3679,-1,0.05,0.2
4,39,2146,-1,0.0,0.0
4,40,2987,1,0.0,0.0
4,41,1400,1,0.0,0.0
4,42,1921,1,0.0,0.0
4,43,5268,-1,0.8,0.8
4,44,5303,-1,0.0,1.1
4,45,1447,1,0.8,0.0
4,46,1275,-1,0.0,0.5
4,47,2740,-1,0.0,0.2
4,48,1491,1,0.0,0.0
4,49,1521,-1,0.5,0.8
4,50,1373,-1,0.0,0.0
4,51,1781,1,0.5,0.0
4,52,2364,1,0.65,0.05
4,53,3183,1,0.65,0.5
4,54,2299,1,0.0,0.0
4,55,1407,1,1.1,0.0
4,56,1452,1,0.8,0.35
4,57,1164,-1,0.0,0.65
4,58,2983,1,0.35,0.0
4,59,1923,1,0.05,0.0
4,60,876,-1,0.0,1.1
4,61,2857,1,0.0,0.0
4,62,2844,1,0.0,0.0
4,63,2683,1,0.8,0.0
4,64,1196,1,0.0,0.0
4,65,1227,-1,0.0,0.05
4,66,1266,1,0.8,0.0
4,67,1336,1,0.65,0.0
4,68,2497,1,0.8,0.05
4,69,1481,1,0.8,0.0
4,70,2890,-1,0.35,0.0
4,71,1645,-1,0.05,1.1
4,72,1103,1,0.2,0.05
4,73,2478,1,0.0,0.0
4,74,1333,-1,0.05,0.95
4,75,1416,1,0.05,0.0
4,76,1183,-1,0.0,0.5
4,77,2441,-1,0.0,0.0
4,78,1500,-1,0.0,0.2
4,79,1450,-1,0.0,0.8
4,80,1562,-1,0.0,0.6
4,81,1767,-1,0.0,0.0
4,82,888,-1,0.05,0.8
4,83,1439,1,0.2,0.05
4,84,1676,1,0.65,0.0
4,85,1546,-1,0.35,0.6
4,86,1249,1,1.1,0.0
4,87,1145,1,0.95,0.0
4,88,1512,1,0.0,0.35
4,89,1367,-1,0.0,0.8
4,90,1522,1,0.95,0.05
4,91,1074,1,0.0,0.0
4,92,934,1,1.1,0.5
4,93,1556,-1,0.0,0.5
4,94,1114,-1,0.0,0.8
4,95,1621,-1,0.0,0.35
4,96,2184,-1,0.0,0.0
4,97,1325,1,0.5,0.0
4,98,1246,-1,0.0,0.0
4,99,1597,-1,0.0,0.05
4,100,2734,1,0.8,0.8
4,101,1054,-1,0.0,0.65
4,102,4260,1,0.2,0.0
4,103,1232,-1,0.0,0.0
4,104,1732,-1,0.0,0.0
4,105,843,-1,0.0,1.1
4,106,1250,1,0.0,0.05
4,107,1576,1,0.05,0.0
4,108,1219,-1,0.65,0.8
4,109,1461,-1,0.0,0.0
4,110,2581,-1,0.0,0.05
4,111,985,1,0.95,0.0
4,112,961,1,0.8,0.0
4,113,978,1,0.8,0.0
4,114,4419,-1,0.0,0.0
4,115,1302,-1,0.0,0.0
4,116,1153,1,0.0,0.0
4,117,1033,-1,0.05,0.65
4,118,957,1,0.95,0.5
4,119,1271,1,0.0,0.0
5,0,4573,-1,0.5,0.65
5,1,3339,-1,0.5,0.8
5,2,5410,1,1.4,0.0
5,3,10236,1,0.65,0.8
5,4,5784,-1,0.5,0.65
5,5,3272,1,1.1,0.5
5,6,2593,1,0.8,0.65
5,7,4628,1,1.1,0.65
5,8,2522,1,0.65,0.0
5,9,9605,-1,0.65,0.8
5,10,1583,1,0.2,0.95
5,11,5220,-1,0.8,1.1
5,12,7521,1,0.65,0.65
5,13,2083,-1,0.0,0.5
5,14,3647,-1,0.95,0.8
5,15,2790,-1,0.0,0.5
5,16,4538,-1,0.95,1.1
5,17,2889,-1,0.35,0.95
5,18,4539,1,0.2,0.8
5,19,2411,1,0.8,0.8
5,20,1791,-1,0.35,0.65
5,21,11451,-1,0.95,0.65
5,22,12467,-1,0.65,0.95
5,23,3323,-1,0.5,0.5
5,24,3139,-1,0.95,0.5
5,25,6585,-1,0.8,1.1
5,26,2175,1,0.95,0.35
5,27,9514,1,0.65,1.1
5,28,2883,1,1.25,1.1
5,29,6008,1,1.1,0.8
5,30,2064,1,1.1,0.2
5,31,2596,-1,0.95,0.65
5,32,7987,-1,0.95,0.95
5,33,3846,-1,0.8,0.95
5,34,4457,-1,0.35,0.95
5,35,2606,-1,0.5,0.8
5,36,2338,-1,0.5,0.65
5,37,9804,-1,0.65,0.8
5,38,4005,1,1.4,0.95
5,39,4239,1,0.8,0.5
5,40,2777,1,0.5,0.0
5,41,1763,-1,0.0,1.1
5,42,2346,-1,0.65,0.8
5,43,1407,1,0.65,0.5
5,44,1645,1,1.25,0.8
5,45,2029,1,0.65,0.5
5,46,1395,1,0.5,0.0
5,47,1998,-1,0.65,1.1
5,48,2131,1,0.8,0.65
5,49,2170,-1,0.35,0.65
5,50,2591,-1,0.95,0.95
5,51,2569,-1,0.2,1.1
5,52,2201,1,0.8,0.95
5,53,3203,-1,0.2,0.35
5,54,1679,1,0.8,0.95
5,55,11481,-1,0.8,0.65
5,56,2299,-1,0.95,0.65
5,57,4372,-1,0.35,1.1
5,58,3020,1,1.1,0.5
5,59,2617,-1,0.8,0.8
5,60,2997,1,0.95,0.8
5,61,3094,1,0.95,0.35
5,62,1646,1,1.1,0.95
5,63,2145,-1,0.35,0.5
5,64,1666,1,0.5,0.8
5,65,2162,1,1.1,0.65
5,66,4106,-1,0.95,1.1
5,67,3549,1,0.65,0.95
5,68,2059,1,1.1,0.95
5,69,1836,1,0.95,0.35
5,70,2797,-1,0.95,1.4
5,71,3814,1,0.65,0.35
5,72,1552,1,0.5,0.95
5,73,1761,1,1.1,0.8
5,74,1830,1,0.8,0.5
5,75,4063,-1,0.5,0.8
5,76,2243,1,0.65,0.95
5,77,2007,1,0.95,0.0
5,78,1930,1,0.65,0.65
5,79,1921,1,0.65,0.5
5,80,3888,1,0.5,1.1
5,81,2296,-1,0.65,0.65
5,82,2063,-1,0.95,1.1
5,83,1723,1,0.95,0.2
5,84,1541,-1,0.65,1.1
5,85,1576,-1,0.0,1.4
5,86,1790,1,0.8,0.5
5,87,1449,-1,0.8,0.65
5,88,2175,1,0.65,0.35
5,89,2671,-1,0.65,0.65
5,90,3138,-1,0.0,0.65
5,91,2577,1,1.1,0.95
5,92,1451,1,0.5,0.35
5,93,1971,1,0.8,0.65
5,94,1307,-1,0.8,0.8
5,95,2366,-1,0.5,0.8
5,96,2330,-1,0.95,0.8
5,97,2702,-1,0.35,0.2
5,98,1837,-1,0.35,0.95
5,99,2763,1,0.95,0.35
5,100,1789,-1,0.8,1.25
5,101,2434,1,0.8,0.8
5,102,2746,-1,1.1,0.65
5,103,1398,1,0.8,0.5
5,104,1415,-1,0.35,0.95
5,105,1682,-1,0.95,1.1
5,106,1284,1,1.1,0.35
5,107,2749,-1,0.8,0.2
5,108,1729,1,1.1,0.0
5,109,1498,1,1.1,0.95
5,110,1516,1,0.5,0.5
5,111,1479,-1,0.65,0.8
5,112,2344,1,1.1,0.8
5,113,1706,-1,0.0,0.95
5,114,1624,-1,0.8,1.1
5,115,1659,-1,0.35,0.65
5,116,1798,-1,1.1,1.25
5,117,1976,1,0.65,0.35
5,118,1669,-1,0.8,0.5
5,119,1403,-1,0.5,1.1
6,0,3077,1,0.65,0.65
6,1,2443,-1,0.5,1.4
6,2,3851,-1,0.65,0.35
6,3,1674,-1,0.0,0.95
6,4,4085,1,0.8,0.8
6,5,4310,1,0.65,0.65
6,6,2851,-1,0.95,0.5
6,7,6580,1,0.65,0.95
6,8,2112,-1,0.95,0.8
6,9,3459,1,0.95,0.95
6,10,2083,1,0.95,0.0
6,11,3810,-1,0.8,0.95
6,12,2582,-1,0.8,0.95
6,13,1965,1,0.65,0.8
6,14,2053,1,0.95,1.4
6,15,2075,-1,0.65,0.65
6,16,2327,-1,0.95,0.95
6,17,7299,-1,0.8,0.8
6,18,3499,1,0.65,0.8
6,19,2058,-1,0.35,1.25
6,20,2343,-1,0.8,0.65
6,21,3332,1,0.95,0.8
6,22,5118,1,0.95,0.65
6,23,5818,1,1.1,0.65
6,24,5480,1,0.65,0.95
6,25,2262,1,1.4,0.65
6,26,1885,1,0.8,0.5
6,27,4647,1,0.5,0.8
6,28,2795,1,0.0,0.8
6,29,2391,-1,0.8,0.8
6,30,2132,-1,0.65,0.8
6,31,1753,-1,0.65,0.95
6,32,1565,1,0.95,0.8
6,33,5829,-1,0.8,0.95
6,34,1473,1,0.95,0.95
6,35,2756,-1,0.95,1.1
6,36,9179,1,0.65,0.95
6,37,4856,1,0.95,0.8
6,38,4454,1,0.65,0.65
6,39,3803,-1,0.65,0.95
6,40,3112,1,0.65,0.65
6,41,1836,1,0.5,0.95
6,42,2887,-1,1.55,1.25
6,43,1906,1,1.1,0.95
6,44,2401,-1,0.65,0.95
6,45,3320,1,0.95,0.65
6,46,1803,-1,0.0,0.5
6,47,3124,1,0.65,0.65
6,48,2448,-1,0.65,1.4
6,49,2020,-1,0.8,0.5
6,50,2198,-1,0.8,0.8
6,51,4057,-1,0.35,0.65
6,52,1457,-1,0.0,0.5
6,53,2901,-1,1.4,0.95
6,54,1649,-1,0.8,0.95
6,55,1330,1,0.95,0.65
6,56,3243,1,0.65,0.8
6,57,3476,1,0.95,0.8
6,58,4326,1,0.95,0.95
6,59,1492,1,0.65,0.95
6,60,3291,1,0.95,0.35
6,61,1686,-1,0.8,0.65
6,62,1471,1,1.4,0.5
6,63,1613,-1,0.8,0.95
6,64,1615,1,0.35,0.65
6,65,2575,1,0.95,0.8
6,66,1202,-1,0.8,0.95
6,67,969,1,0.8,0.95
6,68,1993,1,0.8,0.8
6,69,3277,-1,0.65,1.55
6,70,1123,1,0.95,0.0
6,71,3412,1,0.95,0.65
6,72,1591,1,0.95,0.0
6,73,1052,-1,0.0,0.65
6,74,470,1,0.95,0.65
6,75,3046,1,0.95,0.8
6,76,5454,-1,0.95,1.4
6,77,1520,1,0.95,0.95
6,78,1898,-1,0.95,0.95
6,79,2551,1,0.8,0.65
6,80,1843,1,0.95,0.8
6,81,1358,1,1.25,1.55
6,82,2228,1,0.8,0.95
6,83,1717,-1,0.65,0.8
6,84,1157,1,1.25,0.35
6,85,1250,-1,0.0,0.95
6,86,1283,1,0.65,0.0
6,87,1389,1,0.95,0.0
6,88,1805,-1,0.8,0.95
6,89,1956,-1,0.5,0.8
6,90,2259,-1,0.65,0.65
6,91,1560,-1,0.35,0.95
6,92,974,-1,0.95,0.95
6,93,1270,1,0.95,0.95
6,94,1251,-1,0.0,0.95
6,95,1576,-1,0.65,1.1
6,96,1882,1,0.8,0.65
6,97,2316,1,1.4,0.95
6,98,884,-1,0.0,0.95
6,99,1595,-1,0.95,0.65
6,100,2383,-1,0.95,0.65
6,101,1810,1,0.8,0.8
6,102,1526,-1,0.95,0.95
6,103,2161,1,0.8,0.95
6,104,1758,-1,0.65,0.65
6,105,1407,-1,0.65,0.65
6,106,1908,1,0.95,0.8
6,107,3460,-1,0.65,0.95
6,108,1847,1,0.5,0.0
6,109,2685,-1,0.95,0.95
6,110,1692,1,0.65,0.35
6,111,1254,1,0.5,0.0
6,112,1621,-1,0.95,0.65
6,113,1366,-1,0.95,0.65
6,114,1707,-1,0.8,0.0
6,115,1089,1,0.95,0.8
6,116,1351,-1,0.8,0.65
6,117,2537,-1,0.65,0.65
6,118,1559,1,1.55,0.65
6,119,1358,-1,0.65,0.95
7,0,1836,-1,1.1,0.95
7,1,4858,-1,0.5,0.95
7,2,2161,-1,1.55,1.1
7,3,3118,1,1.1,0.35
7,4,3729,-1,0.35,0.5
7,5,4798,-1,1.1,2.45
7,6,2374,1,1.4,1.1
7,7,1682,-1,1.1,0.95
7,8,2076,1,1.1,1.1
7,9,2728,1,1.25,0.5
7,10,4007,-1,0.95,1.1
7,11,1498,-1,0.95,1.1
7,12,1177,-1,1.25,1.1
7,13,1643,1,1.4,0.95
7,14,4121,1,2.0,1.1
7,15,3232,-1,2.0,0.95
7,16,1724,1,1.1,1.1
7,17,3165,1,2.0,0.35
7,18,3505,-1,0.5,2.45
7,19,3333,-1,0.95,1.1
7,20,3004,-1,1.55,1.85
7,21,4601,1,1.1,0.65
7,22,4246,1,2.0,1.4
7,23,3601,-1,0.5,0.95
7,24,5343,-1,0.95,2.0
7,25,2599,1,2.0,1.25
7,26,3480,1,1.55,1.1
7,27,5000,-1,0.35,1.1
7,28,2194,1,0.95,1.4
7,29,5391,1,0.95,0.95
7,30,3898,1,0.95,0.95
7,31,2451,1,2.45,1.1
7,32,5186,1,2.45,2.0
7,33,2889,-1,0.95,1.1
7,34,2113,1,1.1,1.25
7,35,2534,-1,0.95,2.3
7,36,5470,-1,1.1,1.1
7,37,2991,-1,0.95,1.25
7,38,2434,1,0.95,1.55
7,39,2875,-1,2.0,2.45
7,40,2465,-1,0.8,1.1
7,41,2565,-1,1.1,1.55
7,42,3585,-1,0.35,1.1
7,43,3663,1,1.55,0.65
7,44,2049,1,1.1,1.1
7,45,4382,1,2.45,1.1
7,46,2886,-1,1.1,1.1
7,47,3060,-1,1.1,2.0
7,48,2653,-1,0.95,0.95
7,49,4411,-1,1.1,0.95
7,50,3190,1,1.1,1.25
7,51,2469,-1,1.4,0.95
7,52,2123,-1,1.1,2.3
7,53,2445,-1,1.1,0.95
7,54,1773,1,0.5,0.35
7,55,3000,-1,0.5,1.25
7,56,2686,-1,1.1,1.85
7,57,2367,-1,1.4,2.0
7,58,1749,1,1.25,0.95
7,59,3833,1,2.45,2.0
7,60,4784,-1,1.55,1.4
7,61,1730,1,1.55,0.95
7,62,1077,-1,0.95,1.4
7,63,3814,-1,1.1,1.55
7,64,3089,1,2.0,1.1
7,65,1654,1,1.25,2.0
7,66,2117,-1,1.1,1.1
7,67,2244,-1,0.35,2.0
7,68,3364,1,1.4,0.65
7,69,1949,1,0.95,1.1
7,70,2978,-1,1.1,1.1
7,71,1889,1,0.95,0.5
7,72,2417,-1,0.65,1.1
7,73,1857,1,1.1,0.95
7,74,1438,1,1.1,0.95
7,75,5863,1,0.95,2.0
7,76,1513,1,2.0,0.8
7,77,2101,1,0.95,0.65
7,78,2523,-1,1.1,2.45
7,79,2697,1,2.0,0.5
7,80,3219,-1,0.95,1.55
7,81,2174,-1,1.1,0.95
7,82,2025,-1,0.95,1.1
7,83,1955,-1,0.8,2.0
7,84,2076,1,2.45,0.5
7,85,1642,1,1.1,1.55
7,86,2148,1,1.85,1.1
7,87,2053,1,1.4,1.55
7,88,1541,1,2.3,0.95
7,89,2534,-1,2.0,2.45
7,90,1899,-1,1.1,1.1
7,91,2392,-1,0.65,1.4
7,92,3847,1,1.1,0.95
7,93,2619,-1,0.65,1.55
7,94,4180,1,1.55,1.1
7,95,1936,1,1.85,1.55
7,96,4482,1,1.1,0.8
7,97,1610,1,2.3,1.1
7,98,2171,-1,1.1,2.0
7,99,1962,-1,0.95,0.95
7,100,2607,1,0.95,0.5
7,101,2582,-1,0.95,1.1
7,102,2051,-1,2.0,0.95
7,103,1908,1,0.95,1.1
7,104,1922,1,1.1,1.1
7,105,2140,-1,1.55,0.95
7,106,3448,1,1.1,0.35
7,107,2372,1,0.95,1.1
7,108,2207,-1,1.1,1.1
7,109,2572,-1,2.0,1.25
7,110,1473,-1,1.1,1.1
7,111,4593,-1,0.5,2.0
7,112,1610,-1,1.1,1.4
7,113,3948,1,1.1,0.95
7,114,3397,1,1.1,1.1
7,115,2886,-1,0.65,0.95
7,116,2366,-1,1.25,2.0
7,117,1895,-1,1.25,1.1
7,118,5131,-1,1.1,2.45
7,119,3043,1,2.45,1.1
8,0,2507,-1,1.7,2.15
8,1,2134,-1,2.0,1.1
8,2,3104,1,2.0,2.15
8,3,2115,-1,0.95,2.45
8,4,2664,-1,1.85,2.45
8,5,3493,-1,1.1,0.95
8,6,2265,-1,1.85,1.25
8,7,1639,1,2.6,2.6
8,8,1956,1,1.25,1.25
8,9,3777,-1,1.1,1.85
8,10,2185,1,1.7,1.85
8,11,1818,1,2.3,0.8
8,12,2958,1,2.0,1.4
8,13,3672,1,1.85,1.4
8,14,3957,1,2.0,0.95
8,15,1934,-1,0.8,0.95
8,16,2024,1,1.25,2.75
8,17,5394,1,1.7,1.7
8,18,2211,-1,2.0,2.3
8,19,6702,-1,0.8,0.95
8,20,1694,1,2.3,2.0
8,21,2585,1,1.25,1.1
8,22,2005,-1,1.25,2.0
8,23,2527,-1,2.15,1.4
8,24,2909,1,0.95,1.7
8,25,6158,1,2.0,2.75
8,26,5470,-1,0.95,1.7
8,27,3018,1,0.8,2.0
8,28,2168,-1,2.15,1.25
8,29,1622,-1,1.25,1.85
8,30,2725,-1,2.0,2.15
8,31,3982,1,0.95,1.4
8,32,2130,-1,2.15,0.95
8,33,6062,1,1.85,2.3
8,34,2597,-1,2.6,0.8
8,35,3046,1,2.15,1.85
8,36,2818,1,2.0,2.15
8,37,4829,-1,1.25,2.45
8,38,2374,-1,0.8,2.3
8,39,10790,1,1.25,1.4
8,40,2493,-1,2.45,0.95
8,41,3783,-1,2.15,2.0
8,42,2532,1,2.0,1.25
8,43,3582,1,1.85,2.15
8,44,1617,-1,1.4,1.4
8,45,2199,-1,2.45,1.25
8,46,4617,-1,1.85,2.15
8,47,1591,1,2.15,1.7
8,48,1837,1,0.95,2.15
8,49,3655,-1,2.0,1.85
8,50,2680,-1,0.8,2.3
8,51,2675,1,0.95,2.0
8,52,1895,1,2.45,1.85
8,53,3099,-1,2.0,1.7
8,54,5649,-1,1.25,1.25
8,55,1249,1,2.3,0.8
8,56,1810,-1,2.6,2.6
8,57,2423,-1,2.45,1.85
8,58,1467,1,2.3,2.0
8,59,1796,1,1.25,0.8
8,60,2933,1,0.95,1.1
8,61,1836,1,1.4,2.0
8,62,5354,1,1.25,2.3
8,63,3919,1,2.0,2.3
8,64,1549,-1,1.4,1.85
8,65,3875,1,2.3,1.7
8,66,2389,-1,1.4,0.95
8,67,2133,-1,0.95,2.0
8,68,2735,-1,1.25,1.25
8,69,1089,-1,2.15,0.95
8,70,1859,1,0.8,2.6
8,71,2137,1,0.95,0.8
8,72,1893,1,0.95,1.25
8,73,2049,-1,0.8,0.8
8,74,1959,1,1.25,1.85
8,75,2156,-1,0.95,2.6
8,76,3751,-1,2.0,2.45
8,77,3011,1,0.95,0.8
8,78,3907,1,2.0,1.4
8,79,3688,1,1.85,0.8
8,80,2351,-1,2.3,1.85
8,81,1648,1,0.8,0.8
8,82,1913,1,2.45,0.95
8,83,1880,-1,1.7,0.95
8,84,8454,1,1.4,2.0
8,85,1583,1,1.1,2.0
8,86,3631,1,2.45,2.0
8,87,2197,-1,2.0,0.95
8,88,2222,-1,1.25,2.0
8,89,1789,1,0.95,2.45
8,90,3738,-1,0.8,1.85
8,91,2183,1,2.6,0.95
8,92,2075,-1,1.25,0.95
8,93,1883,-1,2.0,2.3
8,94,1403,1,1.85,1.25
8,95,2909,-1,0.95,2.15
8,96,1189,-1,2.15,2.0
8,97,1220,1,1.25,1.25
8,98,1507,1,1.25,2.15
8,99,1428,1,1.85,2.0
8,100,1689,1,1.7,2.0
8,101,2218,-1,1.7,2.3
8,102,4202,1,1.85,1.1
8,103,2067,-1,1.85,1.7
8,104,7225,-1,2.3,2.0
8,105,2522,-1,2.3,1.25
8,106,2408,-1,0.8,1.25
8,107,1628,1,1.4,1.4
8,108,2775,-1,1.1,1.25
8,109,2350,-1,2.75,2.0
8,110,1686,1,1.7,0.95
8,111,3420,-1,2.15,1.85
8,112,6061,-1,1.85,2.45
8,113,2435,-1,1.7,1.7
8,114,3465,1,1.4,2.15
8,115,2452,-1,2.75,1.25
8,116,1619,1,2.0,1.25
8,117,4774,-1,2.0,0.8
8,118,4797,1,1.4,1.25
8,119,2442,1,2.15,2.0
9,0,3814,1,1.1,0.5
9,1,3772,-1,0.5,0.35
9,2,2437,1,0.65,0.5
9,3,4887,-1,0.5,0.35
9,4,2871,1,0.95,0.65
9,5,3340,1,0.35,0.2
9,6,2786,-1,0.35,0.65
9,7,2839,-1,0.8,1.4
9,8,1985,-1,0.5,1.55
9,9,2034,-1,0.65,0.95
9,10,2185,-1,0.65,1.25
9,11,5349,-1,0.5,0.65
9,12,2601,-1,0.65,1.1
9,13,3060,-1,1.1,1.55
9,14,3909,1,1.4,0.65
9,15,3604,1,1.4,0.65
9,16,3990,1,0.65,0.8
9,17,2063,1,1.1,0.5
9,18,5749,-1,0.65,0.8
9,19,2127,1,0.8,0.65
9,20,1975,1,0.8,0.5
9,21,5517,1,1.55,1.1
9,22,1876,1,1.25,0.95
9,23,1907,-1,0.2,0.8
9,24,1914,1,0.95,0.35
9,25,1945,-1,1.4,1.55
9,26,1899,1,0.8,0.35
9,27,2048,-1,0.8,1.4
9,28,1536,-1,0.05,0.8
9,29,1781,1,1.55,0.35
9,30,1413,1,0.65,0.5
9,31,2923,-1,0.5,0.95
9,32,6754,1,0.95,0.8
9,33,1704,-1,0.35,0.5
9,34,5374,1,1.4,0.8
9,35,5338,1,1.55,0.8
9,36,5539,-1,0.8,0.8
9,37,1817,-1,0.35,0.8
9,38,2192,-1,0.5,0.65
9,39,2392,-1,0.65,0.65
9,40,3952,1,1.1,1.55
9,41,1624,-1,0.95,0.8
9,42,1675,-1,0.95,0.65
9,43,1420,1,0.35,1.55
9,44,2088,-1,0.65,0.35
9,45,1738,-1,0.8,0.2
9,46,2548,-1,1.55,1.55
9,47,3065,-1,1.1,0.95
9,48,1321,1,0.65,0.8
9,49,1476,1,0.35,1.55
9,50,1372,1,0.5,0.65
9,51,2000,-1,1.25,0.65
9,52,1298,-1,0.65,0.2
9,53,1903,-1,1.4,0.8
9,54,1905,1,0.35,1.4
9,55,1804,1,0.8,0.95
9,56,1796,-1,0.8,0.5
9,57,1958,1,0.35,0.8
9,58,1995,-1,0.65,0.65
9,59,1938,-1,0.35,0.5
9,60,1798,1,0.5,1.1
9,61,1395,1,0.05,0.35
9,62,1415,1,0.2,1.55
9,63,2794,1,0.8,1.4
9,64,677,-1,0.5,0.65
9,65,2103,1,0.65,1.4
9,66,1777,-1,0.8,0.5
9,67,6047,-1,0.65,0.5
9,68,2316,1,0.65,0.95
9,69,2108,-1,1.1,0.8
9,70,2569,-1,1.1,0.65
9,71,2056,-1,0.8,0.65
9,72,1548,1,0.95,1.25
9,73,1501,1,0.2,0.35
9,74,1038,-1,0.8,0.35
9,75,1620,1,0.65,1.4
9,76,2522,-1,0.65,0.65
9,77,1519,-1,0.8,0.05
9,78,4272,1,0.8,0.95
9,79,1132,-1,1.55,0.65
9,80,2341,1,1.55,1.4
9,81,1387,1,1.55,0.2
9,82,3092,-1,0.35,0.95
9,83,2529,-1,0.65,0.65
9,84,1431,-1,0.2,0.65
9,85,1272,1,0.5,0.35
9,86,1545,1,1.55,0.35
9,87,2115,-1,0.8,1.55
9,88,1489,1,1.4,0.35
9,89,2337,-1,0.5,1.1
9,90,5734,1,0.35,0.65
9,91,1360,1,0.65,0.5
9,92,1586,1,0.95,0.5
9,93,1674,-1,0.5,0.8
9,94,1752,-1,0.35,1.55
9,95,1820,-1,0.65,1.55
9,96,1977,1,0.35,0.05
9,97,1517,1,0.95,0.8
9,98,1998,-1,1.55,1.55
9,99,2126,-1,0.5,0.8
9,100,1709,-1,0.65,1.4
9,101,2013,-1,0.8,0.95
9,102,2873,1,0.65,0.5
9,103,5345,-1,0.35,0.5
9,104,1652,1,1.4,0.8
9,105,1959,-1,0.5,0.8
9,106,1481,-1,0.8,1.1
9,107,1497,1,1.55,0.35
9,108,2102,1,0.95,0.65
9,109,1171,1,1.55,0.5
9,110,1670,-1,0.5,1.1
9,111,1854,-1,0.8,0.65
9,112,1275,1,1.1,0.5
9,113,3400,1,1.4,0.65
9,114,6826,1,1.55,1.1
9,115,3907,-1,0.95,1.1
9,116,1393,1,0.65,0.35
9,117,3952,1,0.8,0.8
9,118,1515,-1,0.65,0.95
9,119,1843,-1,0.5,0.65
10,0,2956,-1,0.35,0.95
10,1,2454,1,2.15,1.25
10,2,3689,1,1.4,0.5
10,3,3204,-1,1.7,1.55
10,4,2595,-1,2.75,2.3
10,5,2382,1,1.85,0.65
10,6,3263,-1,1.7,1.7
10,7,2722,1,1.4,2.75
10,8,4175,1,2.0,0.5
10,9,5743,1,0.5,0.05
10,10,3413,1,1.7,2.45
10,11,2708,1,0.95,0.8
10,12,3229,-1,0.2,2.45
10,13,2054,1,1.55,0.65
10,14,2506,1,1.4,1.1
10,15,4890,1,1.7,0.95
10,16,3795,-1,1.7,1.7
10,17,2899,-1,1.55,1.1
10,18,3657,-1,2.15,2.45
10,19,2598,1,2.0,1.55
10,20,6073,-1,1.55,0.5
10,21,5231,-1,0.95,2.45
10,22,2200,1,1.85,2.0
10,23,4621,1,0.8,2.0
10,24,1960,-1,1.7,2.15
10,25,7929,1,2.15,2.0
10,26,2436,-1,1.4,2.45
10,27,2712,-1,0.05,2.0
10,28,4729,-1,2.15,1.7
10,29,5774,1,0.95,0.8
10,30,2578,-1,1.55,1.85
10,31,3228,-1,1.25,1.7
10,32,2676,-1,1.85,0.95
10,33,5374,-1,2.45,2.0
10,34,2111,-1,0.5,1.7
10,35,4374,-1,1.85,2.45
10,36,2281,1,2.15,1.7
10,37,2216,-1,2.0,1.1
10,38,3987,1,0.5,2.15
10,39,938,-1,2.3,1.55
10,40,3506,-1,0.5,1.85
10,41,3359,1,1.7,1.25
10,42,1600,1,2.0,2.0
10,43,1479,-1,0.65,1.55
10,44,2993,-1,1.7,1.85
10,45,1505,-1,2.45,0.2
10,46,1567,1,0.35,2.45
10,47,3992,1,2.15,0.95
10,48,2794,-1,0.8,2.0
10,49,1367,-1,0.05,0.5
10,50,2336,-1,2.0,2.15
10,51,1558,1,1.7,1.7
10,52,1423,-1,1.7,2.15
10,53,4600,1,1.7,2.0
10,54,2577,-1,1.4,2.0
10,55,1729,1,2.0,0.05
10,56,2359,-1,2.15,0.5
10,57,4380,-1,1.7,1.25
10,58,3733,-1,0.95,1.7
10,59,2880,-1,1.25,0.35
10,60,1793,1,2.45,1.85
10,61,4008,-1,0.95,1.1
10,62,2158,-1,1.1,1.7
10,63,1844,1,1.55,2.0
10,64,2946,1,2.45,0.95
10,65,5357,1,2.15,1.7
10,66,2331,1,1.1,2.0
10,67,2172,-1,0.2,1.4
10,68,3082,1,2.45,1.85
10,69,3827,1,2.3,0.35
10,70,4098,1,2.0,2.3
10,71,2352,1,1.25,1.7
10,72,3917,-1,0.5,1.55
10,73,3000,1,0.5,1.4
10,74,1635,1,2.45,1.4
10,75,1775,-1,1.1,2.45
10,76,2295,1,1.7,0.5
10,77,3827,1,2.45,1.7
10,78,2962,1,1.1,1.55
10,79,1977,-1,1.55,1.25
10,80,3624,-1,1.85,0.5
10,81,2872,1,2.3,2.75
10,82,1663,1,2.0,0.8
10,83,2138,1,2.45,0.35
10,84,3166,1,2.0,0.8
10,85,2659,-1,1.25,1.7
10,86,1862,1,2.0,1.7
10,87,2777,1,0.95,0.35
10,88,4617,1,2.45,2.15
10,89,3374,-1,1.85,1.7
10,90,2568,-1,1.1,1.4
10,91,2761,1,1.4,0.2
10,92,3259,1,1.7,2.15
10,93,2754,-1,2.0,1.85
10,94,2407,-1,0.5,1.7
10,95,4312,1,1.1,0.95
10,96,3624,-1,1.25,2.15
10,97,3939,-1,0.35,1.25
10,98,2407,1,0.8,0.95
10,99,1780,-1,0.35,2.3
10,100,2525,-1,2.0,2.0
10,101,1833,-1,1.55,2.3
10,102,3869,-1,2.3,2.0
10,103,1386,-1,0.65,1.85
10,104,2312,1,1.85,2.45
10,105,2880,1,2.45,1.1
10,106,2177,1,1.25,1.55
10,107,3649,1,1.55,1.7
10,108,1952,1,2.0,1.4
10,109,3193,1,0.95,2.15
10,110,2475,-1,0.5,2.0
10,111,2149,1,1.7,1.7
10,112,1594,-1,0.8,0.95
10,113,2011,1,0.95,1.85
10,114,1903,1,1.7,0.5
10,115,2093,-1,1.7,1.25
10,116,1776,1,1.85,1.55
10,117,2006,1,2.0,2.45
10,118,3972,1,1.7,1.1
10,119,2425,-1,2.75,1.4
11,0,1693,-1,0.8,1.1
11,1,3529,-1,1.55,2.15
11,2,3619,1,1.1,1.1
11,3,4619,-1,1.55,1.1
11,4,2557,-1,0.95,0.8
11,5,2870,1,1.55,0.95
11,6,2978,1,0.9,1.25
11,7,4036,1,0.95,0.8
11,8,2904,1,0.95,0.5
11,9,4174,-1,1.4,2.0
11,10,3539,1,1.85,1.1
11,11,1795,1,1.1,1.25
11,12,5726,-1,2.6,2.75
11,13,5765,-1,0.95,1.1
11,14,1930,-1,0.8,2.75
11,15,3574,1,2.6,1.1
11,16,2206,1,1.55,1.25
11,17,1649,1,0.95,1.4
11,18,5114,-1,1.1,0.95
11,19,2477,-1,0.95,1.1
11,20,1941,-1,0.8,0.8
11,21,2183,1,0.8,0.5
11,22,2862,-1,0.8,0.5
11,23,3906,-1,0.9,0.95
11,24,2611,-1,0.65,1.1
11,25,3938,-1,0.8,1.85
11,26,1922,-1,0.35,1.55
11,27,2064,-1,0.5,0.8
11,28,1826,1,0.95,0.5
11,29,1756,1,1.1,0.5
11,30,3119,1,2.0,0.8
11,31,1499,1,0.65,0.35
11,32,2139,1,1.1,0.5
11,33,4705,-1,0.95,2.6
11,34,8860,1,1.55,0.65
11,35,4205,1,0.65,0.8
11,36,2712,1,2.0,0.95
11,37,2958,1,0.8,0.8
11,38,2525,-1,0.95,2.6
11,39,1843,1,2.15,0.8
11,40,3632,-1,1.1,2.6
11,41,6941,1,1.1,0.8
11,42,2011,1,0.95,0.5
11,43,1769,1,0.8,0.35
11,44,2308,-1,0.65,1.55
11,45,3892,1,0.95,1.1
11,46,2113,1,1.7,0.8
11,47,2016,-1,0.8,2.15
11,48,4951,-1,1.85,2.0
11,49,1684,-1,1.25,1.55
11,50,2001,-1,0.8,2.0
11,51,1248,-1,0.8,0.65
11,52,5374,-1,1.1,2.15
11,53,1743,-1,0.5,1.1
11,54,1945,1,1.1,0.65
11,55,1487,-1,0.35,0.65
11,56,2217,-1,0.95,0.95
11,57,4695,-1,1.55,2.0
11,58,2110,1,2.15,0.95
11,59,2154,-1,0.8,0.95
11,60,1943,1,1.55,0.5
11,61,2061,-1,0.5,0.8
11,62,1499,1,1.55,0.35
11,63,2608,-1,0.95,0.95
11,64,1623,1,0.95,0.9
11,65,2166,-1,0.95,2.0
11,66,1357,-1,0.5,0.95
11,67,1993,1,0.8,0.5
11,68,4362,1,1.1,0.8
11,69,5219,1,1.1,1.55
11,70,3413,-1,1.25,0.95
11,71,1948,-1,0.35,2.6
11,72,2161,-1,1.1,2.6
11,73,3073,1,0.5,1.85
11,74,1729,-1,1.1,1.85
11,75,1759,-1,0.95,1.7
11,76,1803,1,2.0,0.8
11,77,1900,1,2.15,1.55
11,78,3305,1,0.8,1.1
11,79,1989,1,1.1,0.8
11,80,2344,1,1.7,0.95
11,81,1725,1,0.95,0.8
11,82,1856,-1,0.95,2.15
11,83,3411,-1,2.15,1.1
11,84,2067,1,0.95,1.25
11,85,2129,-1,1.1,1.1
11,86,1049,-1,0.5,1.55
11,87,2041,1,1.1,0.95
11,88,1292,-1,1.4,0.95
11,89,2487,-1,2.0,1.85
11,90,1552,-1,1.1,0.8
11,91,1845,-1,0.8,1.1
11,92,3187,1,1.25,1.1
11,93,3557,-1,0.8,2.0
11,94,2602,-1,0.8,0.95
11,95,1066,-1,0.8,1.1
11,96,1805,1,0.5,0.8
11,97,3007,-1,2.75,0.8
11,98,2244,-1,2.75,2.6
11,99,1962,1,2.6,0.35
11,100,2514,-1,0.8,0.95
11,101,2807,1,0.95,0.95
11,102,1584,-1,0.35,0.8
11,103,2683,1,2.6,1.1
11,104,2122,1,0.5,1.1
11,105,2227,-1,2.6,0.95
11,106,2900,-1,0.95,1.55
11,107,2616,1,2.0,1.4
11,108,2494,-1,0.8,0.8
11,109,1692,1,2.6,0.95
11,110,3233,-1,1.85,0.5
11,111,2537,1,1.85,0.8
11,112,2545,-1,0.8,0.8
11,113,1535,-1,0.5,0.95
11,114,2267,1,1.1,0.95
11,115,1963,-1,0.8,1.7
11,116,1907,1,0.95,0.95
11,117,1731,1,2.0,1.55
11,118,3364,-1,1.25,0.9
11,119,2139,-1,0.5,0.95
12,0,5231,-1,1.1,2.3
12,1,4462,-1,0.95,1.25
12,2,3251,-1,1.1,1.1
12,3,2989,1,0.95,0.95
12,4,1436,-1,1.55,1.55
12,5,2317,-1,1.4,0.95
12,6,4848,-1,1.1,1.1
12,7,3389,1,1.1,0.5
12,8,3074,-1,0.8,0.95
12,9,3791,1,1.55,0.95
12,10,3028,-1,0.95,0.8
12,11,3044,-1,0.65,1.1
12,12,2738,-1,2.0,0.95
12,13,1892,1,0.95,1.4
12,14,1817,1,0.8,1.55
12,15,1916,1,1.1,0.65
12,16,1676,-1,1.55,0.8
12,17,2460,1,3.0,1.55
12,18,2758,1,1.1,1.55
12,19,1924,-1,0.5,0.95
12,20,3399,1,1.55,1.25
12,21,2055,1,0.95,1.1
12,22,2383,-1,1.1,0.95
12,23,2015,1,1.1,0.8
12,24,3407,1,0.95,0.95
12,25,2199,1,1.25,0.95
12,26,3073,-1,1.25,1.25
12,27,2721,-1,0.95,3.0
12,28,2562,-1,1.1,2.0
12,29,2099,-1,1.25,1.1
12,30,2332,1,1.1,0.95
12,31,3103,-1,1.4,1.1
12,32,3074,1,2.0,1.1
12,33,3804,-1,1.4,2.0
12,34,1685,-1,0.95,1.1
12,35,747,-1,1.1,1.4
12,36,4899,-1,1.25,0.8
12,37,3078,-1,0.95,1.1
12,38,4006,1,1.1,1.1
12,39,4284,-1,1.25,1.1
12,40,4664,1,0.95,1.1
12,41,2502,1,1.1,0.95
12,42,4981,-1,1.1,2.0
12,43,1723,1,0.8,1.1
12,44,2724,-1,0.95,0.8
12,45,2253,1,1.4,1.25
12,46,1817,-1,1.1,1.4
12,47,1894,1,2.0,2.3
12,48,2026,1,1.1,1.1
12,49,5165,1,1.1,1.1
12,50,4468,-1,1.25,1.1
12,51,2687,-1,1.4,1.1
12,52,1845,1,0.5,1.1
12,53,5522,1,0.95,0.95
12,54,4278,-1,1.1,1.1
12,55,2623,-1,0.95,1.1
12,56,2588,1,2.0,0.8
12,57,2581,1,1.1,1.1
12,58,1601,-1,1.55,1.55
12,59,2664,-1,1.25,1.1
12,60,3320,1,1.1,1.25
12,61,2356,1,2.0,1.1
12,62,3163,-1,1.25,0.95
12,63,2523,-1,1.55,0.8
12,64,1712,-1,0.95,1.4
12,65,3851,-1,1.4,0.8
12,66,3017,-1,0.95,0.95
12,67,11705,-1,1.1,1.1
12,68,1701,-1,0.65,1.1
12,69,4700,-1,0.8,1.55
12,70,2951,1,1.1,0.95
12,71,3977,-1,1.25,1.55
12,72,4255,1,0.95,1.85
12,73,2853,1,1.85,1.1
12,74,3495,1,0.95,1.25
12,75,2910,1,2.3,1.1
12,76,2451,1,1.1,1.25
12,77,1703,1,0.95,1.1
12,78,1608,1,0.8,1.25
12,79,1497,-1,1.1,0.8
12,80,3094,-1,1.1,0.95
12,81,3902,-1,1.1,1.1
12,82,1409,-1,1.4,0.95
12,83,1559,1,0.95,1.55
12,84,1477,-1,1.1,1.85
12,85,3069,1,1.25,0.95
12,86,2134,1,1.1,1.25
12,87,2817,-1,1.1,2.0
12,88,2134,1,1.25,1.25
12,89,1617,1,0.95,0.5
12,90,1461,-1,2.0,1.1
12,91,2339,1,1.4,0.95
12,92,5991,-1,1.1,1.1
12,93,2199,1,1.1,0.8
12,94,2462,1,1.55,3.0
12,95,1067,-1,2.3,2.0
12,96,10287,-1,1.1,2.0
12,97,1925,1,0.8,0.95
12,98,1135,-1,2.0,1.1
12,99,3665,-1,1.1,0.95
12,100,3337,-1,0.8,1.1
12,101,1621,1,1.1,1.25
12,102,4467,-1,1.1,1.1
12,103,1513,-1,0.95,1.1
12,104,2373,1,1.25,1.4
12,105,1853,1,1.1,0.95
12,106,1472,1,0.95,1.4
12,107,6250,1,1.85,0.95
12,108,2147,1,1.55,1.1
12,109,2173,1,1.1,1.1
12,110,1871,-1,0.95,2.0
12,111,2146,-1,0.8,1.1
12,112,3778,-1,0.8,1.4
12,113,1974,1,3.0,0.95
12,114,1914,1,1.1,1.1
12,115,3997,1,1.1,0.65
12,116,1766,1,2.0,1.4
12,117,11609,-1,0.8,2.0
12,118,1188,-1,1.1,1.1
12,119,1682,1,0.95,1.25
13,0,2075,1,1.55,0.5
13,1,7535,1,1.55,0.95
13,2,4586,-1,1.25,1.55
13,3,8661,-1,1.7,2.0
13,4,3957,-1,0.65,1.7
13,5,9202,-1,0.45,1.4
13,6,2922,1,0.45,0.15
13,7,5625,1,1.4,0.8
13,8,4227,1,1.7,0.2
13,9,2575,-1,0.5,1.7
13,10,1625,-1,0.0,0.8
13,11,2323,1,0.65,0.5
13,12,2629,1,1.7,0.95
13,13,5584,-1,1.4,1.25
13,14,1722,-1,0.5,1.25
13,15,4294,-1,0.8,1.1
13,16,3248,1,1.4,0.65
13,17,16464,-1,1.85,1.55
13,18,2965,1,0.95,0.95
13,19,11012,-1,1.7,1.4
13,20,2685,1,0.65,0.35
13,21,2143,-1,0.35,1.4
13,22,3143,1,1.7,1.25
13,23,6030,-1,0.8,0.95
13,24,8023,1,0.5,1.7
13,25,4240,1,2.0,0.95
13,26,10859,1,1.4,0.65
13,27,3170,1,1.55,0.8
13,28,8323,-1,1.4,1.4
13,29,2384,1,0.8,0.65
13,30,5240,1,1.55,1.1
13,31,3112,-1,1.25,0.65
13,32,1838,1,0.8,0.5
13,33,1973,1,1.55,0.95
13,34,1872,1,0.95,0.35
13,35,1676,-1,0.65,1.7
13,36,9760,1,0.8,1.7
13,37,2523,-1,0.2,0.95
13,38,5853,1,0.8,0.8
13,39,9577,-1,1.7,2.0
13,40,5493,1,1.55,1.7
13,41,1823,-1,0.15,1.7
13,42,1629,-1,0.35,1.7
13,43,1205,1,0.65,0.2
13,44,2014,1,2.0,1.7
13,45,3254,-1,0.65,1.25
13,46,1280,-1,0.65,0.8
13,47,1452,-1,1.25,1.7
13,48,1188,-1,0.35,0.95
13,49,1774,-1,0.35,0.65
13,50,1562,-1,0.2,1.7
13,51,2817,1,1.1,0.95
13,52,1970,-1,1.55,1.7
13,53,2120,-1,0.95,1.55
13,54,7061,-1,1.25,1.4
13,55,1895,1,1.7,0.65
13,56,2393,-1,0.95,1.85
13,57,2211,1,0.95,0.65
13,58,2508,-1,0.15,0.45
13,59,2824,-1,1.1,1.55
13,60,1679,1,0.5,0.95
13,61,1131,1,1.25,0.5
13,62,2595,1,1.7,1.1
13,63,3503,-1,1.7,0.8
13,64,1536,-1,0.2,1.7
13,65,2417,1,1.1,0.8
13,66,2395,-1,0.95,1.7
13,67,1125,1,1.4,0.35
13,68,2151,1,0.65,1.25
13,69,1352,-1,0.0,1.55
13,70,8065,1,1.4,1.4
13,71,2867,1,0.65,0.95
13,72,8247,1,0.8,1.4
13,73,2116,-1,0.5,0.5
13,74,1469,1,1.7,0.65
13,75,1653,-1,0.5,0.8
13,76,1432,1,1.7,0.5
13,77,3820,-1,1.7,1.55
13,78,9054,1,1.25,0.5
13,79,4429,1,2.0,0.95
13,80,2832,-1,0.95,2.0
13,81,3220,1,1.55,1.25
13,82,1810,1,1.7,0.15
13,83,1595,-1,0.2,0.65
13,84,1619,-1,1.7,1.55
13,85,1387,1,0.5,0.5
13,86,2547,1,1.7,0.35
13,87,5361,1,1.55,0.95
13,88,2328,1,0.95,0.2
13,89,2485,-1,1.7,0.5
13,90,3548,1,2.0,1.7
13,91,1978,-1,0.65,1.4
13,92,1167,-1,0.95,1.55
13,93,1476,-1,0.95,0.5
13,94,1537,-1,0.5,1.25
13,95,1131,-1,0.95,0.95
13,96,2759,1,1.4,1.25
13,97,2331,1,1.4,0.45
13,98,1456,1,0.8,0.0
13,99,1325,-1,0.95,1.1
13,100,2046,-1,0.8,0.8
13,101,2027,-1,0.95,0.65
13,102,2086,1,1.25,1.4
13,103,1395,1,1.55,0.0
13,104,4194,-1,1.55,1.85
13,105,1504,-1,0.95,2.0
13,106,2114,1,1.7,1.55
13,107,7989,-1,1.4,1.7
13,108,1435,-1,0.8,1.55
13,109,2070,-1,0.95,1.55
13,110,6107,-1,1.1,1.7
13,111,3078,-1,0.65,1.4
13,112,6019,1,0.95,0.8
13,113,1448,-1,0.5,1.55
13,114,1003,-1,0.5,0.65
13,115,3646,1,0.65,0.95
13,116,2271,1,1.85,0.95
13,117,4375,1,1.55,1.7
13,118,2502,1,1.25,0.65
13,119,1612,1,1.7,0.2
14,0,4454,1,3.0,1.25
14,1,4352,-1,0.95,1.85
14,2,11312,1,2.3,3.0
14,3,2681,1,2.0,2.0
14,4,4703,-1,1.1,2.15
14,5,3569,-1,1.1,1.55
14,6,2993,-1,0.0,0.95
14,7,6628,-1,2.45,2.6
14,8,6188,1,1.7,1.7
14,9,2743,1,2.0,1.25
14,10,3464,1,1.7,2.0
14,11,4531,1,2.6,1.55
14,12,3179,1,1.4,0.0
14,13,6067,-1,1.7,2.3
14,14,2480,1,1.7,0.0
14,15,5211,1,2.0,1.7
14,16,3212,1,1.7,0.8
14,17,6119,-1,1.85,2.15
14,18,4090,-1,0.0,0.35
14,19,2879,-1,0.0,1.85
14,20,3324,-1,1.55,2.3
14,21,2039,1,2.15,0.95
14,22,2871,1,1.85,2.0
14,23,2022,-1,0.95,2.0
14,24,3007,-1,1.55,0.95
14,25,3320,1,1.85,1.1
14,26,3913,-1,2.0,3.0
14,27,6028,-1,1.1,1.25
14,28,6379,-1,2.15,1.7
14,29,6732,1,1.85,1.85
14,30,2985,1,2.45,2.15
14,31,4737,1,2.3,1.7
14,32,2744,1,2.0,0.95
14,33,2859,1,1.85,1.7
14,34,3178,-1,0.0,1.7
14,35,1511,-1,0.0,2.45
14,36,2823,-1,0.8,2.15
14,37,4818,1,2.0,2.15
14,38,4708,1,2.45,2.3
14,39,1936,-1,0.0,2.45
14,40,2170,1,1.85,1.25
14,41,1736,1,2.3,1.85
14,42,2153,1,1.55,2.6
14,43,4170,1,1.25,1.1
14,44,2457,1,2.0,1.4
14,45,3468,1,0.95,1.1
14,46,2333,1,1.7,0.95
14,47,8094,-1,2.15,2.0
14,48,2941,1,2.0,1.1
14,49,1930,-1,0.0,2.0
14,50,4255,-1,1.25,1.7
14,51,1913,1,2.45,0.0
14,52,2146,-1,0.0,1.7
14,53,2866,1,2.45,1.1
14,54,2970,1,2.15,1.55
14,55,2564,-1,1.1,1.85
14,56,4977,-1,1.85,1.85
14,57,3595,-1,2.0,2.15
14,58,2714,-1,1.7,2.3
14,59,4681,1,1.25,2.0
14,60,1816,-1,0.0,1.4
14,61,4904,1,2.0,2.15
14,62,1497,-1,0.8,1.7
14,63,2145,-1,0.35,2.15
14,64,2733,1,3.0,1.7
14,65,2456,-1,0.0,1.85
14,66,3759,1,2.15,1.85
14,67,2258,-1,0.95,2.15
14,68,2855,1,2.45,2.0
14,69,1396,1,2.45,0.95
14,70,1838,1,1.7,0.0
14,71,2858,-1,1.85,2.15
14,72,4266,1,2.3,1.7
14,73,3289,1,1.85,0.95
14,74,3512,1,3.0,2.0
14,75,2041,-1,1.25,3.0
14,76,2834,1,0.95,1.55
14,77,7334,1,1.55,0.95
14,78,1898,-1,1.7,1.85
14,79,3118,-1,2.0,2.0
14,80,1887,-1,0.95,1.7
14,81,2600,1,0.35,0.0
14,82,2544,-1,2.0,2.45
14,83,2006,-1,1.85,2.3
14,84,2698,1,1.55,1.1
14,85,3444,-1,1.7,2.0
14,86,4399,-1,1.1,1.25
14,87,3860,1,0.95,2.0
14,88,1932,-1,1.55,2.15
14,89,1409,-1,1.25,1.85
14,90,18545,-1,2.6,2.45
14,91,7308,1,2.15,0.8
14,92,7756,1,1.85,0.0
14,93,5929,1,2.15,1.1
14,94,2317,-1,0.95,2.45
14,95,2980,1,1.7,1.25
14,96,2783,1,1.85,0.0
14,97,2820,1,2.15,1.85
14,98,2438,-1,2.0,1.85
14,99,3368,1,1.7,1.7
14,100,4929,1,2.15,2.0
14,101,7561,-1,2.3,2.45
14,102,5267,1,1.25,1.1
14,103,2097,-1,1.1,2.45
14,104,1957,1,2.15,0.35
14,105,1623,-1,1.1,2.0
14,106,3646,1,1.7,2.15
14,107,3613,-1,2.0,1.7
14,108,2404,-1,1.4,2.0
14,109,2830,1,2.3,1.55
14,110,8251,-1,2.15,2.0
14,111,1878,-1,1.7,3.0
14,112,1775,-1,1.1,0.95
14,113,2765,1,2.0,0.0
14,114,1924,-1,2.15,2.45
14,115,5583,1,3.0,2.3
14,116,4854,1,2.0,0.95
14,117,1734,1,2.45,0.0
14,118,1890,1,0.95,0.0
14,119,2238,-1,0.95,1.55
15,0,2497,1,0.05,1.55
15,1,5320,-1,1.55,2.0
15,2,2496,1,0.05,0.35
15,3,4516,1,0.05,0.05
15,4,2363,1,0.2,0.35
15,5,1699,-1,0.95,0.35
15,6,3480,-1,1.55,0.05
15,7,1940,1,0.05,0.95
15,8,1916,-1,1.85,0.0
15,9,2446,-1,3.0,0.65
15,10,2322,1,0.2,0.0
15,11,2942,-1,0.05,0.35
15,12,2542,1,0.0,2.9
15,13,2003,1,0.65,2.75
15,14,7000,-1,0.65,0.05
15,15,2129,-1,0.05,0.95
15,16,2525,-1,2.9,0.65
15,17,3180,1,0.0,2.0
15,18,3397,1,0.15,0.35
15,19,2932,1,0.05,0.05
15,20,3483,1,1.55,0.65
15,21,2127,-1,0.65,0.05
15,22,2335,1,0.05,3.0
15,23,3477,-1,0.0,0.05
15,24,2070,1,0.95,1.85
15,25,1440,-1,0.95,0.0
15,26,2658,-1,0.95,0.05
15,27,1811,-1,0.05,0.05
15,28,1474,-1,3.0,0.95
15,29,1962,1,0.35,3.0
15,30,2214,-1,0.8,0.35
15,31,1670,-1,2.0,0.05
15,32,5251,-1,2.15,0.2
15,33,1904,1,0.05,2.0
15,34,2916,-1,2.15,0.65
15,35,2067,1,1.55,2.15
15,36,4629,1,0.05,0.05
15,37,1557,-1,0.65,0.05
15,38,2256,1,0.2,0.15
15,39,1809,1,0.15,1.4
15,40,2654,-1,0.05,2.75
15,41,3196,-1,0.35,0.05
15,42,2461,1,0.35,0.15
15,43,5769,1,2.0,2.0
15,44,1913,1,1.55,0.95
15,45,2606,-1,0.0,0.0
15,46,2965,1,2.6,1.25
15,47,1649,-1,1.25,0.35
15,48,5740,-1,0.05,0.05
15,49,4941,1,0.35,0.65
15,50,4544,1,1.4,0.8
15,51,2454,1,0.35,0.2
15,52,4667,-1,0.05,0.2
15,53,2043,1,0.95,0.05
15,54,1644,1,0.15,1.55
15,55,2385,1,0.95,0.05
15,56,1566,-1,0.05,2.15
15,57,2514,-1,0.05,1.55
15,58,2411,-1,0.95,0.05
15,59,2439,1,2.15,0.95
15,60,1917,1,2.0,0.05
15,61,3602,1,1.4,0.15
15,62,5816,-1,0.65,3.0
15,63,3830,-1,0.05,0.05
15,64,2843,-1,0.05,0.65
15,65,2092,1,0.65,1.55
15,66,1786,1,2.6,0.2
15,67,1897,1,2.0,0.0
15,68,5314,-1,0.0,2.15
15,69,1594,-1,0.05,1.55
15,70,2504,-1,0.15,0.65
15,71,1865,1,3.0,0.35
15,72,2905,1,0.05,0.35
15,73,8727,1,2.0,1.55
15,74,1724,1,0.05,0.0
15,75,5087,-1,0.35,0.95
15,76,2575,1,0.05,0.15
15,77,2216,-1,0.35,0.8
15,78,1398,-1,0.65,2.9
15,79,5793,-1,0.15,0.2
15,80,4020,-1,0.95,2.15
15,81,1513,-1,0.35,0.05
15,82,1304,-1,1.55,0.15
15,83,2368,1,2.15,0.0
15,84,1642,1,2.9,0.0
15,85,1489,-1,0.05,0.95
15,86,1794,1,2.15,1.55
15,87,2012,-1,0.65,2.15
15,88,1882,1,1.55,0.05
15,89,2656,1,0.2,0.05
15,90,2675,1,0.0,0.2
15,91,1889,1,0.65,0.15
15,92,1732,1,0.35,1.25
15,93,1888,1,0.35,0.05
15,94,1828,-1,0.05,0.95
15,95,1714,-1,0.0,0.05
15,96,1339,-1,0.95,3.0
15,97,1886,-1,0.65,0.35
15,98,1558,-1,0.95,1.55
15,99,1583,1,2.75,0.05
15,100,1633,-1,0.0,1.85
15,101,2514,1,2.75,0.65
15,102,1934,-1,0.05,0.0
15,103,2258,1,0.0,0.0
15,104,1931,-1,0.05,0.65
15,105,6284,-1,2.0,2.0
15,106,1664,1,1.55,0.05
15,107,5506,-1,0.2,2.15
15,108,3341,-1,0.8,1.4
15,109,1235,-1,1.25,2.6
15,110,1593,1,3.0,0.05
15,111,4282,1,0.05,0.05
15,112,2380,-1,0.0,0.95
15,113,1219,-1,0.2,2.6
15,114,1495,1,1.85,0.95
15,115,1786,1,0.05,0.05
15,116,2240,-1,0.15,0.05
15,117,1783,1,2.15,0.05
15,118,2204,-1,0.05,2.0
15,119,1922,-1,0.05,0.65
16,0,3202,-1,0.2,0.95
16,1,6774,1,0.65,0.5
16,2,1737,-1,0.0,0.8
16,3,1977,-1,0.0,0.05
16,4,4340,1,0.5,0.05
16,5,1853,-1,0.0,0.0
16,6,2154,-1,0.2,0.95
16,7,3933,1,0.2,0.0
16,8,2253,1,0.35,0.05
16,9,5243,-1,0.0,0.0
16,10,3433,-1,0.05,0.0
16,11,2245,-1,0.05,0.2
16,12,1557,1,0.95,0.0
16,13,2176,-1,0.2,0.2
16,14,2211,-1,0.0,0.8
16,15,7038,1,0.2,0.05
16,16,5009,-1,0.35,0.35
16,17,1475,-1,0.0,0.0
16,18,2250,-1,0.05,0.65
16,19,3887,-1,0.05,0.05
16,20,1423,-1,0.35,0.65
16,21,2410,1,0.0,0.0
16,22,4945,1,0.2,0.8
16,23,5351,-1,0.2,0.05
16,24,2387,-1,0.0,0.2
16,25,2937,-1,0.0,0.5
16,26,3483,1,0.35,0.0
16,27,2290,1,0.35,0.05
16,28,2067,-1,0.2,0.5
16,29,2748,1,0.2,0.0
16,30,2044,-1,0.35,0.8
16,31,3660,-1,0.2,0.5
16,32,1384,-1,0.0,0.35
16,33,1821,1,0.05,0.0
16,34,2800,1,0.5,0.2
16,35,2268,1,0.2,0.0
16,36,1727,-1,0.0,0.2
16,37,1781,1,0.2,0.35
16,38,2045,-1,0.0,0.5
16,39,1715,1,0.35,0.0
16,40,3047,1,0.05,0.2
16,41,1796,-1,0.0,0.35
16,42,1575,1,0.05,0.0
16,43,4728,-1,0.2,0.2
16,44,1710,-1,0.95,0.2
16,45,1986,1,0.5,0.0
16,46,2761,1,0.35,0.2
16,47,1843,-1,0.0,0.0
16,48,1576,1,0.8,0.0
16,49,3296,-1,0.95,0.8
16,50,1381,1,0.0,0.0
16,51,1658,-1,0.2,0.0
16,52,2028,-1,0.05,0.35
16,53,2107,1,0.2,0.0
16,54,1469,1,0.95,0.0
16,55,1982,1,0.0,0.0
16,56,1591,1,0.05,0.0
16,57,2348,1,0.8,0.2
16,58,1506,1,0.2,0.0
16,59,1585,-1,0.05,0.5
16,60,1997,-1,0.2,0.5
16,61,1349,-1,0.0,0.35
16,62,2011,1,0.35,0.35
16,63,1726,1,0.05,0.8
16,64,1718,1,0.95,0.0
16,65,2467,-1,0.0,0.2
16,66,2025,1,0.5,0.0
16,67,2975,-1,0.0,0.2
16,68,3665,-1,0.05,0.2
16,69,5711,-1,0.2,0.05
16,70,1827,-1,0.0,0.05
16,71,2697,-1,0.35,0.5
16,72,2819,1,0.8,0.35
16,73,3166,-1,0.0,0.0
16,74,2915,1,0.0,0.0
16,75,2512,-1,0.0,0.65
16,76,1941,1,0.5,0.35
16,77,4040,-1,0.2,0.5
16,78,1901,1,0.5,0.0
16,79,1230,-1,0.0,0.95
16,80,3193,1,0.0,0.05
16,81,1312,1,0.95,0.2
16,82,1659,1,0.5,0.0
16,83,1695,-1,0.05,0.35
16,84,1424,-1,0.35,0.2
16,85,1682,1,0.0,0.0
16,86,1391,-1,0.0,0.35
16,87,2446,-1,0.0,0.05
16,88,1306,-1,0.0,0.95
16,89,1803,1,0.0,0.0
16,90,1783,-1,0.5,0.65
16,91,2232,1,0.2,0.2
16,92,2183,1,0.65,0.05
16,93,2370,1,0.0,0.5
16,94,1935,1,0.8,0.05
16,95,1602,1,0.5,0.2
16,96,1590,1,0.8,0.0
16,97,2116,-1,0.0,0.5
16,98,3692,1,0.0,0.2
16,99,2845,1,0.05,0.0
16,100,2089,1,0.2,0.2
16,101,1893,1,0.8,0.95
16,102,1566,1,0.5,0.2
16,103,2001,-1,0.0,0.2
16,104,1690,-1,0.0,0.2
16,105,1360,-1,0.35,0.5
16,106,4323,1,0.5,0.35
16,107,1986,1,0.05,0.05
16,108,1937,1,0.65,0.0
16,109,2501,1,0.35,0.0
16,110,1366,-1,0.05,0.2
16,111,1967,1,0.35,0.0
16,112,2263,1,0.0,0.0
16,113,2189,1,0.65,0.35
16,114,2452,1,0.5,0.2
16,115,1208,-1,0.0,0.95
16,116,1831,-1,0.0,0.05
16,117,2775,1,0.2,0.05
16,118,3291,-1,0.2,0.35
16,119,1618,1,0.2,0.0
17,0,2368,-1,0.0,1.25
17,1,1790,1,1.85,1.55
17,2,4283,1,0.8,0.2
17,3,1936,-1,1.4,1.85
17,4,2561,1,1.1,1.1
17,5,2634,1,1.7,0.0
17,6,3844,1,1.55,0.95
17,7,2388,-1,1.55,1.55
17,8,2878,-1,0.0,0.95
17,9,2037,-1,0.35,0.8
17,10,3801,-1,1.85,1.55
17,11,1999,-1,2.0,1.7
17,12,1938,-1,0.95,2.75
17,13,1981,-1,0.0,1.7
17,14,2402,1,1.85,0.0
17,15,5550,-1,0.2,1.4
17,16,1902,1,2.0,0.35
17,17,1958,1,0.0,0.0
17,18,1852,-1,0.65,1.85
17,19,1798,1,1.55,0.0
17,20,1519,-1,0.0,0.8
17,21,1506,1,1.85,0.5
17,22,7039,-1,0.95,1.55
17,23,1089,-1,1.25,1.7
17,24,1857,1,0.5,0.65
17,25,1632,1,1.85,1.1
17,26,3229,-1,1.7,1.85
17,27,4503,-1,0.0,1.85
17,28,1549,-1,2.0,1.7
17,29,3358,1,2.0,0.2
17,30,1885,-1,0.35,1.55
17,31,1451,-1,0.0,2.0
17,32,1908,-1,2.3,1.1
17,33,5337,1,1.7,1.4
17,34,8376,1,1.7,0.8
17,35,1847,1,0.0,0.0
17,36,1912,1,2.0,1.85
17,37,4241,-1,0.05,1.4
17,38,3685,1,2.75,2.3
17,39,2400,1,0.35,0.2
17,40,5568,-1,2.0,1.85
17,41,2958,-1,1.4,1.55
17,42,1213,-1,1.1,2.0
17,43,1154,-1,0.5,1.85
17,44,1902,1,0.0,0.0
17,45,2870,1,0.8,0.0
17,46,1571,-1,0.0,1.55
17,47,2710,1,2.75,0.95
17,48,1899,1,1.55,1.85
17,49,6174,-1,1.55,1.7
17,50,3292,1,1.55,0.35
17,51,4194,-1,0.8,1.85
17,52,1566,1,2.0,0.0
17,53,1476,1,1.55,1.55
17,54,1574,1,1.55,0.95
17,55,1800,1,1.85,0.65
17,56,2528,-1,0.8,1.85
17,57,1707,-1,0.0,1.4
17,58,1782,1,1.7,1.25
17,59,2173,1,1.85,1.85
17,60,3800,-1,1.4,1.7
17,61,2914,-1,0.0,2.0
17,62,2171,-1,0.65,0.5
17,63,1574,1,1.85,0.8
17,64,4009,-1,0.0,0.95
17,65,3606,1,1.25,0.0
17,66,2914,-1,0.0,0.0
17,67,1846,1,1.1,2.3
17,68,1973,-1,0.05,0.95
17,69,2145,-1,1.7,2.0
17,70,1151,-1,2.3,2.75
17,71,1638,1,1.4,0.05
17,72,1267,-1,1.55,0.8
17,73,2912,1,0.8,0.8
17,74,2418,1,1.1,1.1
17,75,5234,-1,0.0,1.7
17,76,1538,-1,0.0,1.7
17,77,1373,-1,0.0,1.1
17,78,2162,1,1.7,2.0
17,79,6511,1,1.7,0.0
17,80,2150,1,1.85,0.8
17,81,3372,1,0.8,1.7
17,82,1234,-1,0.35,2.0
17,83,1575,1,1.7,0.0
17,84,1808,1,1.55,0.0
17,85,1146,-1,0.0,1.55
17,86,3977,1,1.4,0.2
17,87,2326,1,2.0,1.1
17,88,5233,1,1.7,1.55
17,89,2181,-1,0.2,0.8
17,90,3934,-1,0.0,1.85
17,91,2216,1,1.85,1.7
17,92,1905,1,1.7,2.0
17,93,5761,-1,0.0,0.0
17,94,5271,1,2.0,1.7
17,95,1283,-1,1.1,1.85
17,96,1724,1,1.1,0.0
17,97,1878,1,1.85,0.0
17,98,1927,1,0.8,0.35
17,99,1833,1,0.95,0.05
17,100,1639,1,0.95,0.0
17,101,1657,1,1.4,0.0
17,102,1261,-1,0.8,0.8
17,103,1807,-1,0.0,0.0
17,104,4477,-1,0.2,0.35
17,105,1119,-1,0.2,2.0
17,106,3391,1,1.55,1.4
17,107,3090,-1,1.85,2.0
17,108,1948,1,1.7,0.0
17,109,3342,-1,1.85,1.85
17,110,2577,1,1.85,1.4
17,111,2612,-1,1.85,2.0
17,112,1751,1,0.8,1.55
17,113,1666,1,0.95,0.0
17,114,7434,-1,0.95,1.55
17,115,2355,1,1.85,0.8
17,116,2085,1,2.0,0.0
17,117,1840,-1,0.0,1.7
17,118,2820,-1,0.8,1.85
17,119,1137,-1,1.55,1.85
18,0,5338,-1,0.65,0.35
18,1,2803,1,0.35,0.65
18,2,3064,-1,0.35,0.05
18,3,2719,1,0.5,0.35
18,4,2056,1,0.95,0.5
18,5,3514,-1,0.5,0.8
18,6,3179,-1,0.0,0.5
18,7,2017,1,1.1,0.65
18,8,4342,-1,0.8,0.35
18,9,5359,-1,0.35,0.65
18,10,6861,-1,0.5,0.5
18,11,5881,1,0.65,0.65
18,12,2890,1,0.95,0.35
18,13,3117,-1,0.2,0.8
18,14,1878,1,0.95,0.5
18,15,2424,1,0.8,0.35
18,16,2592,1,0.5,0.5
18,17,1661,1,0.35,0.5
18,18,2834,-1,0.65,0.65
18,19,3292,1,0.2,0.35
18,20,3419,-1,0.5,0.35
18,21,3702,1,0.65,0.8
18,22,3939,1,0.5,1.4
18,23,4697,1,0.95,0.0
18,24,2220,1,0.8,0.2
18,25,1736,1,0.35,1.25
18,26,3137,1,0.5,0.2
18,27,2002,-1,0.5,0.2
18,28,2642,1,0.65,0.5
18,29,2051,-1,0.5,0.35
18,30,2132,1,0.5,0.35
18,31,2193,-1,0.2,0.65
18,32,1992,-1,0.5,0.2
18,33,2537,-1,0.5,1.1
18,34,1793,-1,0.8,0.95
18,35,2361,-1,0.65,0.8
18,36,1504,-1,1.1,0.65
18,37,2808,1,0.8,0.95
18,38,1775,-1,0.5,0.95
18,39,2204,-1,0.8,0.65
18,40,3660,-1,0.2,0.5
18,41,2284,-1,0.35,0.2
18,42,3655,-1,0.35,0.8
18,43,2916,1,0.65,0.65
18,44,2110,1,0.65,0.35
18,45,2289,-1,0.35,0.5
18,46,2264,1,0.95,0.8
18,47,2187,-1,0.2,0.8
18,48,2346,1,0.95,0.5
18,49,1371,-1,0.5,1.1
18,50,1567,-1,0.5,0.35
18,51,1897,-1,0.0,0.95
18,52,2171,-1,0.8,0.35
18,53,1874,1,0.35,1.1
18,54,2115,-1,0.5,0.5
18,55,2935,1,1.4,0.5
18,56,2699,1,0.5,0.5
18,57,2021,-1,0.8,0.65
18,58,1658,1,0.8,0.8
18,59,1229,1,0.65,0.5
18,60,5232,1,0.65,0.05
18,61,2872,1,0.95,0.65
18,62,1945,1,0.35,0.35
18,63,1719,-1,0.5,0.5
18,64,2302,1,0.65,0.35
18,65,2446,-1,0.5,0.2
18,66,1653,-1,0.65,0.35
18,67,2246,-1,0.35,0.8
18,68,2150,-1,1.25,0.5
18,69,2467,1,0.8,0.5
18,70,2928,1,0.5,0.35
18,71,2289,1,1.1,0.5
18,72,5093,1,0.35,0.2
18,73,2037,1,0.05,0.35
18,74,4740,-1,0.8,0.5
18,75,1870,1,0.35,0.65
18,76,2514,1,0.2,0.5
18,77,1991,1,0.65,0.65
18,78,3302,1,0.5,0.65
18,79,2662,1,0.65,0.8
18,80,2602,1,0.5,1.25
18,81,1765,1,0.65,1.1
18,82,2447,1,0.5,0.0
18,83,1967,1,1.1,0.5
18,84,3668,1,0.8,0.65
18,85,1566,-1,0.35,0.5
18,86,2721,-1,0.05,0.65
18,87,3255,-1,0.65,0.35
18,88,4637,1,0.35,0.5
18,89,2179,-1,1.1,0.35
18,90,1611,1,0.35,0.5
18,91,1688,-1,0.5,0.65
18,92,3619,-1,0.35,0.2
18,93,1787,1,0.35,0.5
18,94,1951,1,0.2,0.5
18,95,2518,1,0.8,0.2
18,96,1448,-1,0.35,0.95
18,97,2122,-1,0.5,1.1
18,98,3579,1,0.5,0.8
18,99,1925,-1,0.5,1.4
18,100,2002,-1,0.35,0.35
18,101,2430,-1,0.8,0.8
18,102,2251,-1,0.35,0.65
18,103,1699,-1,0.35,0.65
18,104,4589,-1,0.65,0.35
18,105,1481,-1,0.65,1.1
18,106,1952,1,0.35,0.65
18,107,1766,-1,0.5,0.5
18,108,1442,-1,0.5,0.95
18,109,2041,1,0.35,0.8
18,110,2617,-1,0.2,0.35
18,111,4101,-1,0.65,0.95
18,112,1970,-1,1.25,0.35
18,113,3006,1,0.2,0.35
18,114,2200,1,0.65,0.2
18,115,2853,-1,1.4,0.5
18,116,2212,-1,0.5,0.95
18,117,4282,-1,1.1,0.5
18,118,1943,1,0.95,0.8
18,119,4470,-1,0.2,0.5
19,0,6226,1,0.8,0.95
19,1,3263,1,1.55,1.4
19,2,4199,-1,0.65,0.95
19,3,9812,1,0.95,0.95
19,4,2743,1,0.95,0.95
19,5,2520,-1,1.1,1.4
19,6,2275,1,1.55,0.95
19,7,3333,-1,0.95,0.95
19,8,2377,-1,0.95,2.0
19,9,3234,1,1.4,0.95
19,10,3483,1,0.95,0.95
19,11,2105,1,0.95,2.0
19,12,3170,1,0.95,1.1
19,13,2341,-1,0.95,1.55
19,14,2383,1,0.95,0.95
19,15,2583,1,0.95,0.95
19,16,5049,1,0.95,0.95
19,17,4060,1,1.1,0.95
19,18,2664,-1,1.55,0.95
19,19,2700,1,2.15,0.8
19,20,2625,-1,1.85,0.95
19,21,4005,1,1.55,1.1
19,22,3931,1,0.95,0.95
19,23,3398,1,2.0,1.55
19,24,2138,1,0.95,0.95
19,25,2404,1,0.95,0.95
19,26,3213,1,1.1,0.65
19,27,1997,-1,1.55,2.0
19,28,2035,1,2.15,1.55
19,29,1960,-1,1.1,1.1
19,30,3089,-1,0.95,2.0
19,31,2869,-1,0.95,0.95
19,32,3308,-1,2.0,0.95
19,33,2289,1,0.95,1.1
19,34,2347,-1,0.95,2.0
19,35,1740,1,0.95,1.4
19,36,2966,-1,0.95,1.25
19,37,1874,1,1.55,1.1
19,38,1851,1,1.55,0.95
19,39,1688,1,2.0,0.65
19,40,2772,1,0.95,1.55
19,41,1851,1,0.95,0.95
19,42,1870,1,1.1,1.1
19,43,2644,-1,0.95,1.55
19,44,1816,1,1.85,1.25
19,45,1833,-1,0.5,1.55
19,46,1523,1,2.0,0.95
19,47,1429,-1,0.95,0.95
19,48,1363,-1,0.8,1.1
19,49,2245,-1,1.1,1.55
19,50,2279,1,1.1,1.1
19,51,3264,1,0.95,2.0
19,52,2464,1,1.4,0.95
19,53,2326,1,0.95,0.5
19,54,1987,1,1.4,0.95
19,55,1752,-1,0.95,0.95
19,56,2468,-1,0.95,0.95
19,57,1418,-1,0.95,0.95
19,58,2354,1,1.55,0.95
19,59,1585,-1,1.4,0.95
19,60,2622,1,0.95,1.1
19,61,1517,1,1.4,1.4
19,62,1544,1,0.95,0.65
19,63,1912,1,0.95,2.0
19,64,1467,-1,0.8,0.65
19,65,1572,1,1.4,1.1
19,66,1334,-1,1.55,2.0
19,67,1976,1,1.55,0.95
19,68,1516,-1,0.95,0.95
19,69,1101,-1,1.1,0.95
19,70,1358,-1,1.1,0.95
19,71,1313,1,0.95,0.95
19,72,1436,-1,2.0,0.95
19,73,3417,-1,1.55,1.4
19,74,1447,1,0.95,1.4
19,75,2152,1,2.0,0.95
19,76,2086,1,0.95,1.1
19,77,2029,-1,0.95,1.4
19,78,1241,-1,0.95,1.1
19,79,2277,1,0.95,0.95
19,80,2395,-1,0.95,1.4
19,81,1391,-1,1.1,0.95
19,82,2040,-1,1.55,2.15
19,83,1514,-1,0.95,0.95
19,84,2268,-1,0.95,0.95
19,85,1945,1,1.55,0.5
19,86,2743,-1,1.4,0.95
19,87,1868,1,1.1,0.8
19,88,1422,-1,0.5,0.95
19,89,1338,-1,0.8,2.15
19,90,1123,-1,0.95,0.95
19,91,1647,1,0.95,0.95
19,92,1369,-1,0.95,0.8
19,93,1460,-1,0.65,1.1
19,94,1618,1,0.95,1.55
19,95,1412,1,1.55,0.95
19,96,1508,1,0.95,1.85
19,97,1440,1,0.65,0.8
19,98,1137,-1,0.95,1.55
19,99,2040,1,2.0,0.95
19,100,2754,-1,1.4,1.55
19,101,1343,-1,0.95,2.0
19,102,1237,-1,2.0,0.95
19,103,1076,-1,1.25,1.85
19,104,1780,1,2.0,0.95
19,105,1639,-1,1.1,1.1
19,106,1134,-1,0.95,1.4
19,107,1602,1,1.1,1.55
19,108,1392,-1,0.65,2.0
19,109,1156,-1,0.95,1.55
19,110,1987,1,1.25,0.95
19,111,1337,1,0.95,0.95
19,112,1423,-1,0.95,0.95
19,113,1237,-1,1.4,1.55
19,114,3604,-1,0.95,0.95
19,115,1187,-1,1.4,1.4
19,116,2248,1,0.95,0.95
19,117,2175,1,1.1,0.95
19,118,1821,1,2.0,1.55
19,119,1736,1,0.95,0.95
20,0,2267,1,1.4,0.8
20,1,5563,1,0.65,0.35
20,2,2849,1,1.1,0.35
20,3,2464,-1,0.45,1.1
20,4,3343,1,0.35,0.5
20,5,6349,1,1.4,1.1
20,6,6840,-1,0.8,1.1
20,7,4093,1,0.3,0.5
20,8,6859,-1,0.65,0.65
20,9,2668,1,0.95,0.5
20,10,4005,1,0.65,0.45
20,11,5189,1,0.35,0.8
20,12,12077,-1,0.95,0.8
20,13,2738,1,1.1,0.5
20,14,8511,-1,0.95,1.55
20,15,1971,-1,0.5,0.95
20,16,6449,1,1.1,1.25
20,17,4766,1,0.65,1.1
20,18,10343,1,0.95,0.3
20,19,4302,1,1.25,0.65
20,20,2190,-1,0.0,1.55
20,21,5200,-1,0.5,1.1
20,22,3241,-1,0.65,0.95
20,23,3230,-1,1.1,0.5
20,24,2208,-1,0.0,0.5
20,25,4344,-1,0.8,0.65
20,26,3648,1,0.8,0.35
20,27,4829,-1,0.5,0.3
20,28,7833,1,0.8,1.1
20,29,3509,-1,0.0,0.65
20,30,5678,1,1.4,1.1
20,31,9641,-1,0.35,0.95
20,32,2641,-1,0.35,0.5
20,33,3864,1,0.95,1.1
20,34,8579,1,0.95,1.1
20,35,4942,-1,0.5,0.5
20,36,5459,1,0.95,1.25
20,37,3964,1,0.8,0.5
20,38,3301,-1,0.5,1.4
20,39,2254,1,0.8,0.8
20,40,2681,1,0.65,0.0
20,41,1581,1,0.8,0.35
20,42,4246,1,0.65,0.65
20,43,2473,-1,0.65,0.95
20,44,3139,1,0.3,0.95
20,45,2291,-1,0.8,0.35
20,46,3829,-1,0.45,0.65
20,47,6066,-1,0.0,0.95
20,48,2432,1,1.1,0.95
20,49,2774,1,1.1,0.5
20,50,4400,1,1.1,1.4
20,51,7930,1,0.95,0.35
20,52,9274,-1,0.65,1.25
20,53,3058,-1,1.1,0.65
20,54,2230,-1,0.0,0.8
20,55,5704,1,0.95,0.65
20,56,5079,-1,1.1,0.95
20,57,1947,-1,1.1,0.95
20,58,2711,1,1.4,0.5
20,59,3762,1,0.65,1.25
20,60,2335,-1,0.5,0.5
20,61,3882,1,1.4,0.35
20,62,3200,-1,0.35,0.8
20,63,4185,-1,1.1,1.4
20,64,3143,-1,0.8,0.95
20,65,2977,-1,0.8,1.1
20,66,2672,1,0.8,0.8
20,67,2724,-1,0.35,0.8
20,68,2598,-1,1.25,1.1
20,69,2869,-1,1.25,0.95
20,70,1630,-1,0.5,0.95
20,71,2344,1,0.65,0.5
20,72,2267,-1,0.0,1.1
20,73,5893,1,1.1,0.8
20,74,8511,-1,1.1,0.8
20,75,2404,-1,0.35,0.8
20,76,2464,-1,0.8,1.1
20,77,2718,1,0.8,0.35
20,78,2665,1,0.5,0.35
20,79,3188,1,1.1,0.5
20,80,1695,1,1.1,0.45
20,81,3538,1,0.5,1.1
20,82,1528,-1,0.8,0.8
20,83,2970,-1,0.8,1.4
20,84,2504,1,1.1,0.8
20,85,3809,1,1.55,0.95
20,86,2412,1,0.8,0.35
20,87,1822,-1,0.35,0.8
20,88,4629,-1,0.8,0.95
20,89,1817,1,0.5,0.0
20,90,4297,1,0.3,0.5
20,91,3360,-1,0.5,0.35
20,92,1898,-1,0.5,0.3
20,93,2606,-1,0.5,1.1
20,94,2195,1,0.65,0.8
20,95,2781,-1,0.8,0.8
20,96,1788,1,0.95,0.5
20,97,1741,-1,0.35,0.8
20,98,1558,1,1.1,0.0
20,99,1739,-1,0.35,1.1
20,100,2494,1,0.95,0.0
20,101,2268,1,0.95,0.65
20,102,3137,-1,0.5,0.8
20,103,6736,1,0.95,1.1
20,104,4255,-1,0.3,0.95
20,105,1375,-1,0.5,1.1
20,106,1875,1,0.8,0.35
20,107,1598,1,0.8,0.0
20,108,3317,1,1.1,0.8
20,109,1928,-1,0.35,1.4
20,110,3759,-1,0.95,1.1
20,111,1547,1,0.95,0.8
20,112,1185,1,1.55,0.0
20,113,4437,-1,1.4,1.1
20,114,1457,-1,0.5,0.65
20,115,4006,-1,1.25,0.65
20,116,1873,-1,1.1,0.95
20,117,2094,-1,1.1,1.4
20,118,2234,-1,0.35,0.65
20,119,2696,-1,0.95,0.3
21,0,7276,1,1.85,0.5
21,1,5824,1,0.95,1.1
21,2,7376,-1,0.95,0.5
21,3,3845,-1,0.8,0.5
21,4,6311,1,0.35,0.0
21,5,5537,-1,0.35,1.25
21,6,3944,1,1.1,0.8
21,7,1897,1,0.8,0.8
21,8,6357,-1,0.95,1.55
21,9,5427,-1,0.95,1.4
21,10,4717,1,0.8,0.65
21,11,7041,1,1.25,0.8
21,12,5918,1,1.85,1.55
21,13,5560,-1,1.1,0.5
21,14,2630,1,0.65,0.0
21,15,7381,1,2.0,0.65
21,16,3629,-1,0.8,1.4
21,17,4150,-1,0.65,0.95
21,18,7049,1,1.4,1.1
21,19,4999,-1,0.0,1.1
21,20,9862,1,0.5,0.65
21,21,4063,-1,1.55,2.0
21,22,6810,-1,0.65,1.1
21,23,3101,1,0.95,0.65
21,24,2954,1,1.4,1.55
21,25,3784,-1,1.1,0.8
21,26,6244,1,1.4,0.8
21,27,4783,-1,0.8,1.85
21,28,3230,-1,0.8,0.0
21,29,4270,-1,1.1,1.1
21,30,5210,-1,2.0,1.25
21,31,4081,1,2.0,0.65
21,32,4482,-1,1.25,1.85
21,33,2258,1,0.0,1.4
21,34,3033,1,0.65,0.35
21,35,4403,-1,0.35,1.55
21,36,12058,1,1.4,2.0
21,37,5037,1,1.1,0.5
21,38,6049,-1,0.95,1.25
21,39,9080,1,0.8,0.65
21,40,8186,1,0.35,1.25
21,41,3613,1,0.5,0.8
21,42,4145,1,1.55,0.95
21,43,3821,1,1.1,0.0
21,44,4160,-1,1.1,1.4
21,45,4047,1,0.5,0.95
21,46,2783,1,0.5,1.1
21,47,3198,1,0.8,1.1
21,48,4522,-1,1.55,1.4
21,49,4851,1,2.0,0.65
21,50,3037,1,0.8,0.95
21,51,3206,1,0.5,0.95
21,52,7400,-1,0.8,0.35
21,53,4123,1,1.85,1.25
21,54,2431,1,0.95,1.55
21,55,3949,1,1.4,1.1
21,56,2789,1,0.8,0.95
21,57,4184,1,1.1,1.1
21,58,4479,-1,0.65,0.8
21,59,3740,1,0.95,1.25
21,60,2977,1,1.4,0.8
21,61,4256,-1,0.5,1.85
21,62,6446,1,1.25,0.65
21,63,7220,-1,0.0,0.8
21,64,9269,1,0.65,0.65
21,65,7282,1,0.65,2.0
21,66,6824,1,2.0,1.4
21,67,8894,1,1.25,0.95
21,68,2872,1,1.1,0.0
21,69,3400,-1,0.5,0.8
21,70,3006,1,1.85,0.8
21,71,5724,-1,1.25,0.8
21,72,2256,1,1.4,0.65
21,73,4666,-1,0.8,1.4
21,74,2353,-1,0.65,0.95
21,75,3690,-1,0.65,0.5
21,76,2113,1,1.4,1.25
21,77,4074,-1,0.95,1.4
21,78,6208,-1,0.8,1.25
21,79,3112,-1,0.95,0.65
21,80,4667,1,1.85,0.5
21,81,3084,1,0.95,1.1
21,82,2951,-1,0.95,0.5
21,83,2642,-1,0.8,0.5
21,84,3736,1,0.35,0.0
21,85,2900,-1,0.35,1.25
21,86,4960,1,1.1,0.8
21,87,4629,1,0.8,0.8
21,88,2670,-1,0.95,1.55
21,89,6760,-1,0.95,1.4
21,90,4611,1,0.8,0.65
21,91,3053,1,1.25,0.8
21,92,9550,1,1.85,1.55
21,93,3290,-1,1.1,0.5
21,94,2609,1,0.65,0.0
21,95,4385,-1,2.0,0.65
21,96,2633,-1,0.8,1.4
21,97,3711,-1,0.65,0.95
21,98,2380,1,1.4,1.1
21,99,3740,-1,0.0,1.1
21,100,3615,1,0.5,0.65
21,101,3097,-1,1.55,2.0
21,102,6915,-1,0.65,1.1
21,103,2991,1,0.95,0.65
21,104,3508,1,1.4,1.55
21,105,2359,-1,1.1,0.8
21,106,2056,1,1.4,0.8
21,107,6856,-1,0.8,1.85
21,108,4119,1,0.8,0.0
21,109,4080,-1,1.1,1.1
21,110,5074,-1,2.0,1.25
21,111,2733,1,2.0,0.65
21,112,2874,-1,1.25,1.85
21,113,2256,-1,0.0,1.4
21,114,2089,1,0.65,0.35
21,115,2964,-1,0.35,1.55
21,116,5859,1,1.4,2.0
21,117,6849,1,1.1,0.5
21,118,2574,-1,0.95,1.25
21,119,4769,-1,0.8,0.65
22,0,2522,-1,0.5,0.5
22,1,2282,-1,0.2,0.65
22,2,2160,-1,0.35,0.8
22,3,7246,-1,0.65,0.65
22,4,2454,1,0.5,0.65
22,5,3395,1,0.8,1.25
22,6,5644,1,0.65,0.5
22,7,2330,-1,0.35,1.25
22,8,2693,1,0.35,0.65
22,9,3727,1,0.65,0.65
22,10,1622,1,0.8,0.35
22,11,1435,-1,0.2,0.5
22,12,1789,-1,0.65,0.65
22,13,3679,1,0.35,0.5
22,14,3930,-1,0.5,0.5
22,15,1888,-1,0.65,0.65
22,16,1471,-1,0.8,1.4
22,17,1628,-1,0.95,0.65
22,18,1419,-1,0.0,0.95
22,19,2803,-1,0.5,0.5
22,20,1681,-1,0.35,0.65
22,21,1507,-1,0.95,0.65
22,22,5238,-1,0.65,0.8
22,23,3939,1,0.2,0.35
22,24,3004,-1,0.05,0.0
22,25,1446,-1,0.0,0.35
22,26,1083,1,1.4,0.05
22,27,1805,1,1.4,1.25
22,28,1357,1,0.95,0.5
22,29,1913,-1,0.5,0.0
22,30,3194,1,0.35,0.5
22,31,1848,1,1.25,0.35
22,32,1005,1,0.65,0.5
22,33,1574,-1,0.95,0.5
22,34,4318,-1,0.2,0.65
22,35,4139,-1,0.35,0.2
22,36,1800,1,0.65,0.5
22,37,5213,-1,0.35,0.65
22,38,1587,-1,0.5,0.65
22,39,6055,1,0.8,0.5
22,40,1831,-1,0.05,1.4
22,41,2600,1,0.65,0.65
22,42,1148,-1,0.65,0.5
22,43,1286,-1,0.65,1.1
22,44,1062,1,0.5,0.5
22,45,1199,1,0.65,0.95
22,46,1901,-1,0.65,0.65
22,47,1290,-1,0.5,1.4
22,48,3219,1,0.65,0.2
22,49,1094,1,0.8,0.35
22,50,2801,1,0.0,0.05
22,51,2263,-1,0.5,0.65
22,52,1572,1,0.65,0.2
22,53,1632,-1,0.35,0.8
22,54,1938,1,0.65,0.65
22,55,1733,1,0.5,0.35
22,56,1162,-1,0.05,0.65
22,57,1510,-1,0.5,0.65
22,58,1373,1,0.35,0.2
22,59,885,1,1.1,0.35
22,60,3526,1,0.5,0.65
22,61,1143,-1,0.5,0.35
22,62,2409,1,0.35,0.5
22,63,985,1,0.65,0.0
22,64,1652,1,0.8,0.5
22,65,962,1,0.5,0.95
22,66,1299,1,0.2,0.35
22,67,934,1,1.4,0.8
22,68,1329,-1,0.0,0.35
22,69,920,-1,0.95,0.65
22,70,1958,-1,0.05,0.2
22,71,1646,1,0.5,0.35
22,72,1375,1,0.8,0.0
22,73,1771,1,0.5,0.5
22,74,1112,-1,0.8,0.8
22,75,1664,1,0.65,0.0
22,76,1876,-1,0.5,0.65
22,77,1231,-1,0.65,0.95
22,78,1343,1,0.65,0.5
22,79,6922,-1,0.5,0.8
22,80,2174,1,0.65,0.2
22,81,1263,1,0.65,0.65
22,82,1289,1,0.5,0.2
22,83,2404,-1,0.65,0.95
22,84,1050,-1,0.0,0.8
22,85,1335,-1,1.25,1.4
22,86,1860,1,0.8,0.65
22,87,1304,1,0.5,0.5
22,88,1548,1,0.5,0.8
22,89,1508,1,0.65,0.5
22,90,893,-1,0.5,0.5
22,91,2328,-1,0.5,0.65
22,92,1057,-1,0.65,0.35
22,93,1699,-1,0.35,1.25
22,94,1224,-1,0.5,0.5
22,95,1755,-1,0.5,0.35
22,96,1849,1,0.65,0.2
22,97,2111,-1,0.0,0.65
22,98,1476,1,0.65,0.65
22,99,2505,1,0.65,0.05
22,100,1412,-1,0.0,0.5
22,101,1908,-1,0.2,0.65
22,102,1592,1,0.35,0.0
22,103,1595,1,1.25,0.35
22,104,1554,1,0.2,0.05
22,105,1283,1,0.95,0.0
22,106,1167,1,0.8,0.8
22,107,1491,1,0.35,0.5
22,108,1481,-1,0.65,0.5
22,109,1941,-1,1.25,0.8
22,110,3231,1,0.65,0.35
22,111,1675,1,1.4,0.5
22,112,1432,1,0.2,0.65
22,113,932,1,0.5,0.95
22,114,2517,1,0.65,0.35
22,115,2345,-1,0.65,0.65
22,116,1316,-1,0.0,0.65
22,117,1743,1,1.1,0.65
22,118,982,-1,0.35,1.1
22,119,1552,1,0.35,0.0
23,0,5218,1,1.1,1.95
23,1,7248,1,0.8,0.2
23,2,2898,1,1.25,0.95
23,3,5471,-1,0.8,0.8
23,4,3447,1,1.4,0.8
23,5,3919,-1,0.2,1.4
23,6,7124,-1,0.5,0.95
23,7,5170,-1,1.1,1.85
23,8,4174,-1,0.2,0.95
23,9,6871,1,0.65,0.5
23,10,2764,-1,0.5,0.65
23,11,8195,1,0.65,1.1
23,12,8021,1,0.95,1.4
23,13,5963,1,1.1,0.8
23,14,2223,1,0.8,1.1
23,15,3695,-1,1.1,1.25
23,16,4676,-1,0.95,0.65
23,17,2982,1,1.25,0.8
23,18,2382,1,0.8,1.1
23,19,5604,1,0.65,0.65
23,20,5217,1,0.65,0.35
23,21,2846,1,1.95,0.8
23,22,4036,-1,2.45,0.95
23,23,4221,1,1.25,1.1
23,24,3372,1,1.55,0.8
23,25,3120,-1,0.5,0.95
23,26,2686,1,0.35,0.5
23,27,3649,1,1.1,0.95
23,28,5248,-1,1.1,0.95
23,29,4962,-1,0.5,1.1
23,30,3327,-1,1.1,0.35
23,31,2116,-1,0.5,1.55
23,32,4660,-1,0.8,0.95
23,33,2764,1,1.1,0.2
23,34,2778,1,1.55,1.25
23,35,4795,1,0.95,1.1
23,36,3606,1,0.95,0.5
23,37,3734,1,0.65,1.25
23,38,2946,1,1.55,0.2
23,39,7245,-1,0.5,1.1
23,40,5984,-1,2.45,0.65
23,41,3191,1,1.4,1.1
23,42,4182,-1,0.5,0.95
23,43,4102,1,1.1,0.65
23,44,2944,-1,1.1,1.25
23,45,2196,1,1.1,0.95
23,46,2229,1,1.1,0.35
23,47,5346,1,1.25,0.5
23,48,3151,1,1.85,0.95
23,49,3122,1,1.55,1.1
23,50,3064,-1,0.65,1.4
23,51,1859,-1,0.2,0.8
23,52,1543,-1,0.95,0.95
23,53,3109,-1,0.8,1.55
23,54,2125,1,1.1,1.4
23,55,2329,1,1.1,0.5
23,56,3862,1,1.25,1.1
23,57,3743,-1,1.25,1.55
23,58,2877,-1,1.4,0.95
23,59,1661,-1,0.8,1.25
23,60,5019,-1,0.95,1.1
23,61,1641,1,0.8,0.8
23,62,2485,1,0.65,0.95
23,63,1627,1,0.65,0.5
23,64,6459,-1,0.65,0.65
23,65,4819,1,0.5,0.65
23,66,2632,1,0.35,1.1
23,67,2573,-1,0.95,0.65
23,68,2297,-1,0.8,1.95
23,69,3442,-1,0.8,1.4
23,70,2434,-1,1.25,0.65
23,71,1706,1,1.95,1.1
23,72,2474,1,1.25,1.1
23,73,3481,-1,0.8,1.1
23,74,2160,1,1.25,0.95
23,75,3388,-1,0.8,1.1
23,76,3516,1,0.5,0.95
23,77,4310,-1,0.8,0.5
23,78,2441,1,0.8,0.8
23,79,4558,-1,0.2,1.1
23,80,5402,1,1.1,0.5
23,81,2695,1,1.55,0.5
23,82,1641,-1,0.2,1.55
23,83,2217,1,1.4,0.2
23,84,1880,1,0.95,0.8
23,85,5845,1,0.95,0.95
23,86,1736,-1,0.35,0.65
23,87,3100,-1,0.5,0.35
23,88,2029,-1,0.95,1.85
23,89,3566,-1,1.4,0.65
23,90,1376,-1,0.95,1.25
23,91,5800,1,1.1,0.8
23,92,1393,-1,1.1,1.4
23,93,2747,1,0.65,0.95
23,94,2328,-1,0.8,0.8
23,95,4244,-1,0.95,0.5
23,96,1941,-1,1.1,0.8
23,97,1812,1,0.95,0.5
23,98,2362,1,0.65,2.45
23,99,2368,1,0.5,0.8
23,100,8461,-1,1.1,0.95
23,101,11486,1,0.95,1.1
23,102,2883,-1,0.95,1.1
23,103,2545,1,0.95,0.2
23,104,9944,-1,1.25,1.55
23,105,124,1,0.95,0.65
23,106,1620,-1,1.1,1.55
23,107,2275,-1,0.5,1.25
23,108,8418,1,1.1,1.25
23,109,2355,1,0.8,0.2
23,110,5932,-1,1.4,1.1
23,111,3315,1,0.65,0.95
23,112,3190,-1,0.95,1.25
23,113,3406,-1,0.35,1.1
23,114,3691,1,1.55,1.25
23,115,2304,1,0.95,2.45
23,116,2936,-1,0.95,0.5
23,117,2587,1,1.85,1.1
23,118,6367,1,1.1,0.8
23,119,2198,-1,0.2,0.8
24,0,7125,1,0.95,1.4
24,1,3692,1,1.1,0.0
24,2,2541,1,2.6,0.5
24,3,7651,1,1.1,1.1
24,4,19210,1,1.1,1.1
24,5,5687,-1,0.35,0.95
24,6,2943,1,1.1,0.0
24,7,2096,-1,0.5,1.4
24,8,5345,-1,0.8,0.8
24,9,3886,1,1.1,0.95
24,10,1650,-1,0.5,0.95
24,11,2712,-1,0.95,1.4
24,12,13753,-1,0.8,1.25
24,13,3784,-1,0.95,1.1
24,14,5761,-1,1.1,0.35
24,15,6237,-1,0.0,0.65
24,16,4639,-1,0.8,1.1
24,17,1720,-1,0.5,0.95
24,18,2302,-1,1.4,1.85
24,19,1715,-1,0.35,0.8
24,20,1930,-1,0.5,0.95
24,21,4637,-1,0.8,0.8
24,22,9011,-1,1.25,1.7
24,23,6690,-1,2.15,1.1
24,24,2786,1,1.1,1.1
24,25,1546,-1,0.5,1.7
24,26,1446,-1,0.0,2.15
24,27,4059,-1,0.35,0.5
24,28,3822,1,0.8,1.25
24,29,2249,1,2.6,1.1
24,30,2312,1,1.25,0.8
24,31,2977,1,2.3,1.4
24,32,3406,1,0.95,0.0
24,33,4218,-1,0.5,0.5
24,34,9446,-1,1.55,0.95
24,35,5078,-1,0.8,2.45
24,36,1907,1,1.1,0.35
24,37,4781,1,1.1,0.65
24,38,1780,-1,1.25,1.1
24,39,4086,1,1.4,0.8
24,40,11648,1,0.8,1.1
24,41,2738,1,0.65,0.35
24,42,2758,1,0.35,1.1
24,43,2128,1,1.7,0.5
24,44,1577,1,2.15,0.0
24,45,2926,1,0.95,0.5
24,46,2426,1,2.45,0.8
24,47,1679,-1,1.25,0.8
24,48,2037,1,1.1,0.95
24,49,7953,1,2.45,1.2
24,50,2166,-1,0.5,2.6
24,51,7358,1,1.7,1.25
24,52,1493,1,1.25,0.5
24,53,2742,-1,1.1,2.6
24,54,4685,1,0.8,0.8
24,55,5293,-1,0.8,0.8
24,56,3689,-1,1.1,1.55
24,57,3207,1,0.35,0.65
24,58,1903,1,0.35,0.15
24,59,4321,-1,1.2,0.35
24,60,4077,-1,1.1,1.4
24,61,2117,1,0.65,0.0
24,62,1499,-1,1.25,1.55
24,63,1574,-1,0.35,1.1
24,64,2185,-1,0.35,2.3
24,65,7289,-1,1.25,0.8
24,66,2325,1,0.95,0.5
24,67,1743,-1,0.0,0.5
24,68,3476,-1,0.15,1.4
24,69,3173,-1,1.4,2.3
24,70,2271,1,0.5,0.35
24,71,14454,-1,1.25,1.25
24,72,3308,-1,0.65,1.85
24,73,2205,1,0.8,0.8
24,74,3257,1,1.55,0.35
24,75,2696,1,0.65,1.25
24,76,1907,-1,0.8,1.4
24,77,2105,-1,1.1,1.1
24,78,2088,-1,0.5,1.1
24,79,1936,-1,1.1,1.1
24,80,2569,1,0.95,0.35
24,81,4504,1,1.85,0.65
24,82,1320,-1,0.0,0.95
24,83,4091,1,0.95,1.55
24,84,1717,1,0.5,0.0
24,85,1728,1,0.95,0.5
24,86,6360,-1,1.25,1.25
24,87,2025,1,1.1,0.8
24,88,3491,-1,0.95,1.1
24,89,2211,-1,0.65,1.1
24,90,1312,1,1.1,0.5
24,91,2754,-1,0.0,1.1
24,92,1412,1,1.1,1.25
24,93,1810,-1,0.15,0.35
24,94,1339,-1,0.35,0.65
24,95,1746,1,1.25,0.65
24,96,2398,1,1.4,0.95
24,97,1839,-1,1.2,2.45
24,98,1559,1,1.55,1.25
24,99,2145,1,1.4,0.5
24,100,1416,1,0.8,0.35
24,101,1437,1,2.3,0.35
24,102,1478,1,1.4,1.1
24,103,2347,1,0.5,0.5
24,104,1699,1,1.1,0.35
24,105,1938,-1,0.65,0.35
24,106,1418,-1,0.0,1.1
24,107,1855,-1,0.5,1.25
24,108,5421,1,1.1,2.15
24,109,3163,1,0.35,1.2
24,110,2525,-1,0.35,1.55
24,111,3023,-1,0.35,1.1
24,112,2172,1,0.8,0.8
24,113,1573,1,1.1,0.8
24,114,1768,-1,0.8,1.25
24,115,2488,-1,1.4,0.95
24,116,2144,1,1.4,0.15
24,117,1847,1,1.55,1.1
24,118,1349,1,1.85,1.4
24,119,3356,-1,1.1,1.1
25,0,4097,-1,0.5,1.25
25,1,3147,1,1.1,0.2
25,2,3290,-1,1.1,0.0
25,3,1592,1,0.5,0.0
25,4,5927,-1,0.35,0.8
25,5,6716,-1,0.95,1.1
25,6,2573,-1,0.95,1.1
25,7,7630,-1,0.95,1.25
25,8,12133,-1,0.95,0.8
25,9,2272,-1,1.1,0.95
25,10,4203,1,0.0,0.0
25,11,3365,1,0.65,1.55
25,12,3154,-1,0.2,0.05
25,13,2079,-1,0.0,0.5
25,14,6907,-1,0.95,0.8
25,15,4428,-1,0.5,0.8
25,16,2504,1,0.95,1.4
25,17,1729,-1,0.0,0.95
25,18,9992,-1,0.35,0.95
25,19,15692,1,0.8,1.4
25,20,2383,-1,0.8,0.8
25,21,2207,1,0.95,0.05
25,22,2120,-1,0.5,0.5
25,23,3330,1,0.8,0.5
25,24,1926,1,0.5,0.95
25,25,15372,-1,0.35,0.2
25,26,6074,-1,0.2,1.1
25,27,3917,1,1.25,0.0
25,28,2019,-1,0.0,0.65
25,29,1906,1,0.5,0.0
25,30,15875,-1,1.25,0.8
25,31,2140,-1,0.2,0.95
25,32,2231,-1,0.2,0.95
25,33,1655,1,0.8,0.5
25,34,1906,1,1.1,0.0
25,35,9094,1,1.1,0.8
25,36,4457,1,0.8,0.8
25,37,1952,1,1.4,0.0
25,38,13105,1,0.2,0.5
25,39,1514,1,0.8,0.0
25,40,2480,-1,0.0,0.0
25,41,17010,-1,0.95,0.5
25,42,1579,1,0.5,0.95
25,43,1613,1,0.5,0.5
25,44,4880,-1,1.1,0.8
25,45,1533,-1,0.5,0.8
25,46,1885,1,1.1,0.6
25,47,1947,-1,0.35,0.95
25,48,3188,-1,1.1,1.55
25,49,12094,1,1.4,0.8
25,50,1626,-1,0.6,0.8
25,51,2339,-1,0.05,0.5
25,52,1634,-1,0.0,1.4
25,53,4930,1,0.95,0.5
25,54,5033,1,0.95,0.2
25,55,7374,1,0.35,0.2
25,56,2179,-1,0.8,0.8
25,57,3895,1,0.8,0.8
25,58,1670,1,1.25,0.95
25,59,2896,-1,0.5,0.8
25,60,5344,1,0.8,0.95
25,61,1639,1,1.4,0.05
25,62,11081,1,1.1,0.35
25,63,3074,-1,0.95,1.1
25,64,1391,1,0.95,0.0
25,65,5478,1,1.1,0.95
25,66,1818,-1,0.95,0.95
25,67,3290,-1,0.0,0.8
25,68,8333,1,0.5,0.2
25,69,4008,1,0.8,1.25
25,70,5519,-1,0.05,0.2
25,71,5059,1,0.8,0.95
25,72,1343,1,1.1,0.5
25,73,1543,-1,0.0,0.5
25,74,2773,-1,0.5,0.5
25,75,1923,-1,1.55,0.65
25,76,5286,-1,0.05,0.95
25,77,1905,-1,0.0,1.1
25,78,2316,-1,0.2,1.1
25,79,2842,-1,0.0,0.0
25,80,6778,-1,0.5,0.95
25,81,1772,1,1.1,0.95
25,82,5648,-1,0.35,1.1
25,83,1608,1,1.55,1.1
25,84,1699,1,0.8,0.0
25,85,2439,1,1.1,0.95
25,86,1287,-1,0.05,1.4
25,87,1983,-1,0.0,0.5
25,88,1559,-1,0.0,1.25
25,89,1327,1,0.8,1.1
25,90,1355,1,0.5,1.1
25,91,4708,-1,0.5,0.95
25,92,1604,1,0.95,0.8
25,93,1778,1,0.95,0.0
25,94,1587,1,0.8,0.6
25,95,2114,1,1.1,0.2
25,96,1587,1,1.25,0.5
25,97,1460,1,0.95,0.35
25,98,1647,-1,0.0,0.95
25,99,1286,-1,0.0,0.8
25,100,4351,-1,0.8,1.1
25,101,5299,-1,0.2,0.35
25,102,1576,1,0.95,0.95
25,103,2241,1,0.8,0.35
25,104,1707,1,0.0,0.0
25,105,3191,1,0.8,0.5
25,106,1667,-1,0.95,1.1
25,107,1829,-1,0.95,0.5
25,108,2833,1,0.2,0.35
25,109,3748,-1,0.6,1.1
25,110,2311,1,0.95,0.35
25,111,1282,1,0.65,0.0
25,112,1169,1,0.5,0.05
25,113,1561,1,0.95,0.2
25,114,1629,1,0.0,1.1
25,115,9645,-1,1.4,0.95
25,116,1515,1,0.95,0.5
25,117,5227,1,0.5,0.5
25,118,1667,1,0.5,0.0
25,119,1788,1,0.8,0.95
26,0,5334,1,0.15,0.5
26,1,18197,-1,0.5,0.8
26,2,7372,1,0.65,0.65
26,3,3447,-1,0.65,0.95
26,4,36171,1,0.65,0.65
26,5,8380,1,0.65,0.5
26,6,9325,1,0.65,1.1
26,7,7753,-1,1.55,0.2
26,8,4712,1,1.7,2.0
26,9,3571,1,0.5,0.0
26,10,4094,1,0.95,1.55
26,11,12624,-1,1.1,0.65
26,12,4819,1,0.8,0.5
26,13,2567,1,0.65,0.5
26,14,10731,-1,1.1,1.1
26,15,3303,-1,0.0,0.65
26,16,5300,-1,0.5,2.0
26,17,9697,1,1.1,0.95
26,18,3098,-1,0.0,1.1
26,19,14014,-1,0.65,1.25
26,20,13465,-1,0.95,0.15
26,21,3587,1,0.65,1.1
26,22,3738,1,0.95,0.5
26,23,1965,1,0.65,0.8
26,24,2459,1,0.65,0.5
26,25,4585,1,0.65,1.1
26,26,5450,1,1.1,0.65
26,27,3348,-1,0.95,0.65
26,28,2413,1,0.65,0.65
26,29,11206,-1,1.55,1.1
26,30,2865,1,2.0,1.1
26,31,3809,-1,0.95,0.95
26,32,4112,1,1.1,1.55
26,33,3101,1,0.95,0.0
26,34,8950,-1,1.55,0.65
26,35,3522,1,1.55,0.8
26,36,1510,1,1.1,0.45
26,37,19246,-1,0.65,0.65
26,38,2955,1,0.65,0.8
26,39,1193,-1,0.8,1.1
26,40,6231,-1,0.0,0.5
26,41,3011,-1,0.0,0.2
26,42,2409,1,0.95,1.1
26,43,2435,-1,1.1,0.65
26,44,4272,-1,0.5,1.55
26,45,1771,-1,0.5,2.0
26,46,1553,1,0.0,0.0
26,47,2131,1,2.0,0.5
26,48,4454,-1,1.55,0.65
26,49,2067,-1,0.95,0.95
26,50,6613,-1,0.95,0.65
26,51,2693,1,0.65,1.1
26,52,1925,-1,0.5,0.65
26,53,2451,-1,0.8,0.65
26,54,2078,-1,0.5,0.65
26,55,1469,1,0.65,0.45
26,56,3927,1,0.8,1.55
26,57,2599,-1,0.8,1.55
26,58,1374,-1,1.1,0.65
26,59,3849,-1,0.95,1.1
26,60,2617,-1,0.0,1.55
26,61,1495,1,0.95,0.65
26,62,14139,1,2.0,1.55
26,63,1621,1,1.1,1.55
26,64,2360,1,0.0,0.95
26,65,1419,-1,0.0,1.55
26,66,1320,-1,0.5,1.7
26,67,2079,-1,0.5,0.15
26,68,2503,1,0.65,0.5
26,69,4697,1,0.95,0.95
26,70,2904,1,0.15,0.95
26,71,2019,-1,0.45,1.1
26,72,2119,-1,0.5,0.65
26,73,3313,1,0.65,0.5
26,74,2779,-1,2.0,0.65
26,75,2323,1,0.65,0.95
26,76,3587,1,1.25,0.65
26,77,5054,1,0.8,1.25
26,78,10933,-1,1.1,0.65
26,79,1969,-1,2.0,1.7
26,80,2672,1,0.65,0.0
26,81,2326,-1,0.0,0.95
26,82,3109,-1,0.5,0.8
26,83,8439,-1,1.1,2.0
26,84,7520,-1,1.55,0.8
26,85,2417,1,2.0,0.5
26,86,2522,-1,1.25,0.8
26,87,3021,1,1.55,0.0
26,88,1651,1,1.55,0.0
26,89,5081,-1,0.65,0.65
26,90,3538,-1,0.65,1.1
26,91,2058,-1,1.55,2.0
26,92,1332,-1,0.45,0.65
26,93,1279,-1,0.5,0.65
26,94,1766,1,0.65,2.0
26,95,1993,1,0.65,1.55
26,96,3741,1,0.65,0.95
26,97,1568,-1,1.55,0.95
26,98,2885,1,0.95,0.95
26,99,4836,-1,1.1,0.95
26,100,3805,1,0.95,0.0
26,101,2083,-1,1.1,0.8
26,102,2144,1,0.2,0.0
26,103,1048,-1,1.1,0.65
26,104,2220,-1,0.65,0.65
26,105,4032,1,0.65,1.1
26,106,1542,-1,1.55,1.1
26,107,2121,1,1.1,0.0
26,108,2933,1,0.8,0.5
26,109,2473,1,0.2,1.55
26,110,2796,-1,0.0,0.0
26,111,3799,1,0.65,0.65
26,112,3273,-1,0.5,0.95
26,113,2381,1,1.1,1.1
26,114,3845,1,1.55,0.5
26,115,1517,1,1.7,0.5
26,116,4989,-1,0.5,0.65
26,117,1742,-1,0.8,0.65
26,118,17190,1,0.65,0.65
26,119,2007,1,0.65,1.55
27,0,4101,-1,2.0,1.25
27,1,1766,-1,0.95,3.0
27,2,1519,-1,2.0,3.0
27,3,1537,1,0.95,0.95
27,4,2095,1,2.6,0.95
27,5,1470,-1,0.0,1.1
27,6,1394,1,1.4,0.95
27,7,1287,1,2.0,0.95
27,8,2019,-1,1.4,2.9
27,9,1489,1,3.0,0.95
27,10,1580,1,1.55,0.0
27,11,2929,1,3.0,3.0
27,12,2271,1,3.0,0.95
27,13,1267,-1,1.85,2.0
27,14,1697,-1,0.5,0.95
27,15,2221,1,2.9,2.6
27,16,2517,-1,0.95,3.0
27,17,2198,1,3.0,0.95
27,18,1366,1,0.8,2.9
27,19,1169,-1,0.2,2.0
27,20,1402,1,2.0,0.0
27,21,1264,-1,0.0,0.95
27,22,1502,1,2.15,2.0
27,23,2874,1,1.1,3.0
27,24,1981,-1,1.55,2.6
27,25,2145,1,1.25,0.95
27,26,1801,-1,0.65,1.55
27,27,1540,-1,0.0,0.0
27,28,3002,-1,0.95,0.95
27,29,1658,-1,0.0,3.0
27,30,1838,1,1.55,0.95
27,31,1426,-1,0.2,0.8
27,32,628,-1,2.0,1.55
27,33,3859,-1,1.55,0.5
27,34,1574,1,3.0,3.0
27,35,2088,-1,0.95,3.0
27,36,1802,-1,0.65,1.4
27,37,1819,-1,0.95,2.75
27,38,2086,1,2.45,2.0
27,39,2086,1,2.75,2.9
27,40,1965,1,3.0,0.95
27,41,1525,1,0.95,0.95
27,42,1904,-1,2.0,1.85
27,43,1477,-1,2.6,2.9
27,44,1766,-1,0.95,3.0
27,45,2567,-1,0.95,2.0
27,46,1852,-1,1.85,3.0
27,47,1661,1,1.55,0.65
27,48,3661,1,3.0,3.0
27,49,1965,-1,0.95,2.75
27,50,1367,1,3.0,0.0
27,51,2547,-1,0.95,2.0
27,52,1945,-1,0.95,3.0
27,53,5049,1,3.0,0.95
27,54,1410,1,0.8,0.95
27,55,2048,-1,0.95,0.5
27,56,3405,-1,0.95,0.95
27,57,1957,1,1.25,2.0
27,58,1332,-1,1.85,1.4
27,59,1868,-1,0.0,2.15
27,60,1324,1,2.45,0.8
27,61,4716,-1,0.95,2.6
27,62,1225,1,1.55,2.0
27,63,1674,-1,0.0,2.0
27,64,2678,-1,0.95,0.95
27,65,2060,1,1.4,0.65
27,66,1818,-1,1.55,3.0
27,67,1707,1,0.95,1.25
27,68,2411,-1,2.0,2.75
27,69,1403,-1,2.0,1.55
27,70,4120,-1,3.0,3.0
27,71,2113,-1,2.0,0.5
27,72,1632,1,2.9,1.4
27,73,1264,1,0.95,1.85
27,74,1891,1,0.0,0.0
27,75,1335,1,3.0,2.0
27,76,3517,1,3.0,0.95
27,77,2783,-1,0.5,0.95
27,78,1783,-1,2.9,0.8
27,79,4568,-1,0.95,0.95
27,80,2086,1,2.0,0.2
27,81,1680,1,0.95,0.95
27,82,1154,-1,3.0,0.95
27,83,1618,-1,2.0,0.95
27,84,1341,1,0.95,0.0
27,85,1503,-1,1.85,0.95
27,86,1061,1,1.55,2.0
27,87,1299,-1,0.95,0.95
27,88,1318,-1,0.95,1.55
27,89,1403,1,2.75,0.95
27,90,1038,-1,2.0,2.45
27,91,1515,-1,0.95,3.0
27,92,1690,-1,0.95,0.95
27,93,1468,1,0.95,0.95
27,94,1483,-1,0.95,0.8
27,95,1749,-1,2.9,2.75
27,96,1569,-1,1.4,1.85
27,97,1764,-1,3.0,3.0
27,98,1339,1,0.8,0.2
27,99,1418,1,3.0,1.55
27,100,1421,-1,0.95,2.6
27,101,1113,-1,2.0,2.15
27,102,1427,-1,2.75,2.0
27,103,1457,-1,0.95,2.0
27,104,1495,-1,0.5,2.0
27,105,1207,1,2.15,0.0
27,106,1818,-1,3.0,3.0
27,107,2552,1,2.0,0.95
27,108,1029,-1,0.8,2.45
27,109,991,1,2.6,1.55
27,110,1450,1,0.95,0.5
27,111,1329,1,0.0,1.55
27,112,1187,1,1.1,0.0
27,113,1720,1,3.0,1.85
27,114,2022,1,0.95,1.4
27,115,1291,1,2.75,0.95
27,116,1091,1,2.6,0.95
27,117,1469,-1,3.0,1.1
27,118,504,-1,0.5,1.55
27,119,1519,-1,0.95,3.0
28,0,10389,1,1.55,1.1
28,1,12281,1,0.8,2.6
28,2,4655,1,0.5,0.5
28,3,12876,1,0.65,1.1
28,4,13115,1,2.0,0.35
28,5,8251,-1,0.65,0.95
28,6,11508,1,0.95,0.65
28,7,4466,-1,0.65,1.25
28,8,6881,-1,0.95,2.75
28,9,8822,1,2.0,0.95
28,10,6250,-1,1.1,1.55
28,11,11204,1,1.1,2.45
28,12,7518,1,1.1,0.65
28,13,7205,1,1.1,0.95
28,14,13544,1,1.55,1.7
28,15,4710,1,2.0,0.95
28,16,18861,-1,2.6,2.0
28,17,6362,-1,0.35,0.95
28,18,5917,-1,0.95,0.65
28,19,4726,-1,0.95,1.1
28,20,9799,1,0.65,1.1
28,21,2915,-1,0.95,0.35
28,22,6992,1,2.0,1.85
28,23,6918,-1,0.65,0.8
28,24,7310,1,2.0,1.1
28,25,9781,1,2.0,1.25
28,26,7165,1,1.85,0.95
28,27,5585,-1,1.25,0.65
28,28,6547,1,0.8,1.1
28,29,4067,1,0.65,0.5
28,30,12814,-1,1.7,0.95
28,31,9606,1,0.95,1.1
28,32,6417,-1,0.35,2.0
28,33,6470,1,0.95,0.65
28,34,6685,-1,0.95,0.95
28,35,15820,1,1.4,1.85
28,36,7056,-1,0.95,2.0
28,37,4696,1,0.5,0.5
28,38,14234,-1,0.5,1.55
28,39,6289,1,2.0,0.5
28,40,5010,-1,0.5,0.65
28,41,3275,-1,0.95,1.85
28,42,2098,1,0.95,0.65
28,43,6506,-1,0.95,0.8
28,44,2409,1,1.55,1.1
28,45,2063,-1,0.5,0.5
28,46,7143,1,2.75,1.25
28,47,5394,-1,0.65,1.4
28,48,1950,1,2.0,0.95
28,49,5563,1,1.1,0.65
28,50,2133,1,0.95,1.7
28,51,3771,1,2.0,1.1
28,52,1855,1,1.85,0.5
28,53,4640,1,2.0,1.25
28,54,1858,-1,1.1,0.65
28,55,3817,-1,1.1,1.1
28,56,6495,-1,1.55,0.65
28,57,4248,1,0.8,0.65
28,58,7419,1,0.95,2.0
28,59,2882,-1,0.65,1.1
28,60,3919,-1,1.85,1.4
28,61,1913,-1,0.95,1.1
28,62,3954,-1,0.8,0.65
28,63,2453,1,0.65,1.25
28,64,3666,1,0.65,0.8
28,65,11719,1,1.1,0.95
28,66,2004,1,2.0,0.8
28,67,2707,1,2.0,0.8
28,68,4168,-1,0.65,0.95
28,69,3429,-1,0.5,1.55
28,70,3487,-1,2.45,1.1
28,71,4041,-1,1.7,1.55
28,72,1788,1,0.95,0.65
28,73,2805,-1,2.0,2.6
28,74,2061,1,1.25,0.5
28,75,3652,-1,0.5,2.0
28,76,3311,1,2.0,2.0
28,77,3253,-1,0.5,2.45
28,78,743,-1,1.1,0.95
28,79,1876,1,0.95,0.95
28,80,5133,1,0.35,2.0
28,81,1467,-1,0.5,1.85
28,82,5220,-1,2.0,2.0
28,83,1826,-1,0.5,0.65
28,84,2090,-1,2.45,0.5
28,85,2623,-1,1.1,0.8
28,86,3497,-1,1.25,2.0
28,87,3019,-1,1.1,2.0
28,88,2354,1,1.55,0.5
28,89,2661,-1,1.1,0.65
28,90,1743,1,1.55,0.5
28,91,1587,-1,1.85,2.0
28,92,5115,-1,1.1,2.0
28,93,5217,-1,0.8,2.0
28,94,6030,-1,0.5,1.25
28,95,3778,1,1.1,0.95
28,96,5407,-1,2.6,0.8
28,97,2174,1,0.95,0.35
28,98,2847,-1,1.25,2.0
28,99,3291,1,2.75,0.95
28,100,4987,-1,0.95,2.0
28,101,4128,-1,0.5,0.5
28,102,3855,-1,0.95,1.1
28,103,1922,1,0.65,1.55
28,104,3014,1,0.8,0.95
28,105,2150,1,0.35,0.95
28,106,7763,1,0.65,0.95
28,107,2781,1,1.25,0.65
28,108,1573,1,0.65,0.5
28,109,3015,1,1.1,1.55
28,110,2944,-1,0.65,0.95
28,111,1934,1,0.65,1.1
28,112,2872,1,1.4,0.65
28,113,5376,-1,0.8,0.65
28,114,2706,1,0.65,0.8
28,115,3084,1,2.0,0.35
28,116,2288,1,0.65,0.95
28,117,3319,-1,0.8,2.0
28,118,4068,-1,1.25,2.75
28,119,4507,1,1.1,1.1
29,0,2979,-1,1.1,1.25
29,1,5796,-1,1.55,0.8
29,2,3885,1,1.1,1.1
29,3,3259,-1,0.8,0.95
29,4,4394,-1,1.7,0.8
29,5,3168,1,0.8,0.8
29,6,6183,1,1.25,2.0
29,7,4436,-1,0.8,1.25
29,8,1963,-1,0.95,0.95
29,9,5075,-1,1.25,1.55
29,10,6062,-1,0.8,2.0
29,11,5352,1,0.8,0.95
29,12,1985,1,0.95,0.95
29,13,1887,-1,1.55,1.55
29,14,1937,-1,1.7,0.95
29,15,4144,-1,1.25,1.1
29,16,5704,-1,0.8,1.1
29,17,1955,1,1.1,0.95
29,18,3765,1,2.15,0.8
29,19,2026,1,1.25,1.1
29,20,3670,1,0.95,0.5
29,21,2594,-1,0.8,0.95
29,22,2082,1,1.25,0.95
29,23,6672,-1,0.95,1.25
29,24,5802,1,0.8,0.8
29,25,8729,-1,0.8,1.1
29,26,3054,1,1.25,1.7
29,27,3236,-1,0.95,1.7
29,28,2963,-1,1.1,0.8
29,29,3559,-1,2.15,1.25
29,30,2356,1,1.4,0.8
29,31,5576,1,1.7,0.8
29,32,5173,-1,0.8,1.25
29,33,2548,1,1.1,0.95
29,34,2538,1,1.25,1.1
29,35,2609,-1,1.1,1.7
29,36,1734,-1,0.8,2.0
29,37,3102,1,1.25,1.7
29,38,3116,-1,0.95,2.0
29,39,3175,1,1.25,2.0
29,40,6834,-1,0.8,0.8
29,41,5137,-1,1.4,2.0
29,42,5040,-1,0.95,1.25
29,43,4820,-1,1.7,1.7
29,44,2776,-1,0.8,1.25
29,45,2208,1,1.1,0.5
29,46,2687,1,1.25,0.95
29,47,4887,-1,0.8,1.55
29,48,1776,-1,0.95,0.65
29,49,3688,-1,1.25,0.8
29,50,1931,1,0.95,1.7
29,51,4309,-1,2.0,0.8
29,52,2584,1,2.0,0.95
29,53,3315,1,2.0,1.25
29,54,4567,1,0.8,2.15
29,55,4046,1,0.5,0.95
29,56,3695,1,1.1,0.95
29,57,1499,-1,0.8,0.8
29,58,2211,1,1.7,1.25
29,59,3111,1,1.25,1.1
29,60,2267,1,1.55,1.55
29,61,1991,1,1.25,0.8
29,62,1883,-1,0.8,0.8
29,63,3294,-1,0.95,0.95
29,64,4943,-1,0.8,1.7
29,65,1767,-1,1.1,0.95
29,66,3222,-1,0.8,0.8
29,67,2586,1,0.8,1.7
29,68,3819,1,0.95,1.1
29,69,5771,-1,2.0,1.25
29,70,2468,1,0.8,0.8
29,71,2557,-1,1.1,0.95
29,72,6305,-1,0.8,1.55
29,73,2647,1,0.95,0.8
29,74,2821,-1,1.55,1.25
29,75,2887,1,1.1,1.7
29,76,4328,1,1.55,1.25
29,77,8627,1,1.25,0.95
29,78,2213,-1,1.55,0.8
29,79,3460,1,0.65,1.55
29,80,2246,-1,1.1,1.25
29,81,3629,1,1.55,0.8
29,82,2447,1,1.1,1.1
29,83,4052,-1,0.8,0.95
29,84,3336,1,1.7,0.8
29,85,1915,1,0.8,0.8
29,86,3733,1,1.25,2.0
29,87,3833,1,0.8,1.25
29,88,2376,-1,0.95,0.95
29,89,2037,-1,1.25,1.55
29,90,2393,1,0.8,2.0
29,91,2029,1,0.8,0.95
29,92,1728,1,0.95,0.95
29,93,2256,-1,1.55,1.55
29,94,1801,1,1.7,0.95
29,95,2108,-1,1.25,1.1
29,96,2039,-1,0.8,1.1
29,97,1780,1,1.1,0.95
29,98,1563,-1,2.15,0.8
29,99,1749,1,1.25,1.1
29,100,4093,-1,0.95,0.5
29,101,2985,1,0.8,0.95
29,102,1260,1,1.25,0.95
29,103,2212,-1,0.95,1.25
29,104,1448,1,0.8,0.8
29,105,7832,1,0.8,1.1
29,106,1974,-1,1.25,1.7
29,107,1973,-1,0.95,1.7
29,108,1709,-1,1.1,0.8
29,109,2462,1,2.15,1.25
29,110,4445,1,1.4,0.8
29,111,6463,1,1.7,0.8
29,112,2098,1,0.8,1.25
29,113,9211,-1,1.1,0.95
29,114,1885,1,1.25,1.1
29,115,1729,-1,1.1,1.7
29,116,8373,1,0.8,2.0
29,117,2992,1,1.25,1.7
29,118,1640,-1,0.95,2.0
29,119,2761,1,1.25,2.0
30,0,3993,1,1.1,0.95
30,1,3760,-1,1.85,1.4
30,2,1918,1,1.7,2.15
30,3,9587,1,0.95,2.0
30,4,3879,-1,1.7,0.95
30,5,7362,1,1.25,0.95
30,6,8904,1,1.4,1.4
30,7,4326,1,1.4,1.55
30,8,5585,1,2.45,1.1
30,9,4093,-1,2.0,0.95
30,10,4665,-1,1.85,3.0
30,11,6342,-1,1.85,1.1
30,12,3657,1,1.7,1.1
30,13,4949,1,1.1,1.1
30,14,3563,1,0.95,2.45
30,15,2605,-1,0.8,0.95
30,16,3473,1,0.95,1.1
30,17,4472,1,1.55,1.1
30,18,4498,-1,1.25,0.95
30,19,4980,1,1.55,2.0
30,20,5250,1,1.1,0.95
30,21,1935,-1,2.1,2.0
30,22,3239,-1,0.95,0.8
30,23,4521,1,1.4,1.1
30,24,3765,1,0.95,1.4
30,25,2709,1,1.55,2.45
30,26,3112,1,0.95,2.15
30,27,1740,-1,0.95,1.1
30,28,4841,-1,1.7,2.0
30,29,8011,1,0.95,0.95
30,30,10435,1,0.8,1.4
30,31,3544,-1,1.25,2.15
30,32,2004,1,2.15,2.0
30,33,6247,-1,1.1,2.0
30,34,6669,-1,0.95,0.95
30,35,5801,-1,2.1,0.95
30,36,2419,1,0.8,2.0
30,37,10044,1,0.95,2.0
30,38,3679,1,1.1,3.0
30,39,3524,1,1.4,0.8
30,40,1486,-1,2.15,0.95
30,41,2060,-1,3.0,1.1
30,42,1136,-1,1.85,0.95
30,43,1089,-1,0.95,2.0
30,44,1452,-1,0.8,0.95
30,45,1560,1,0.95,2.0
30,46,1466,-1,1.55,1.1
30,47,1660,-1,1.1,1.55
30,48,2200,-1,1.55,1.1
30,49,1299,-1,2.45,1.55
30,50,2200,1,1.25,2.0
30,51,2899,-1,2.0,0.8
30,52,4196,-1,1.1,1.4
30,53,3240,-1,0.95,0.95
30,54,2068,-1,1.1,1.4
30,55,1908,-1,0.95,1.7
30,56,1610,-1,0.8,1.1
30,57,4845,-1,2.45,1.4
30,58,10584,-1,1.55,1.4
30,59,10561,1,1.1,1.1
30,60,6318,-1,0.95,1.4
30,61,5018,-1,1.4,0.95
30,62,1632,-1,1.4,1.55
30,63,3190,1,0.95,1.1
30,64,2070,-1,0.95,0.8
30,65,4049,1,2.15,2.0
30,66,3185,-1,0.95,1.1
30,67,4079,1,0.8,1.55
30,68,2246,-1,1.85,2.0
30,69,2728,1,0.95,1.85
30,70,1446,1,1.4,1.85
30,71,1837,-1,2.45,0.95
30,72,1859,-1,1.1,2.15
30,73,1214,1,0.95,0.95
30,74,1091,-1,2.0,0.95
30,75,1803,1,3.0,1.85
30,76,1439,1,0.95,1.25
30,77,1979,1,1.4,0.8
30,78,1768,-1,2.0,2.1
30,79,1796,-1,1.1,1.1
30,80,2431,-1,1.1,1.55
30,81,1826,-1,1.1,0.95
30,82,2029,-1,1.1,2.45
30,83,1990,1,1.1,1.85
30,84,1346,1,0.95,1.85
30,85,6082,1,1.1,1.55
30,86,1648,-1,0.8,0.95
30,87,3607,-1,1.1,0.95
30,88,1890,1,1.55,0.8
30,89,2289,-1,1.1,0.95
30,90,3047,-1,1.1,1.7
30,91,2659,-1,2.15,1.7
30,92,3304,1,0.95,1.1
30,93,3131,1,2.0,1.1
30,94,3349,1,0.95,2.0
30,95,3458,1,1.4,2.45
30,96,1711,1,2.15,1.1
30,97,1408,1,2.15,1.25
30,98,1706,-1,2.0,0.95
30,99,1609,1,1.1,0.8
30,100,2057,-1,0.8,1.4
30,101,2726,-1,2.0,2.15
30,102,1396,1,2.0,0.95
30,103,1916,-1,0.95,0.8
30,104,1301,-1,2.0,2.15
30,105,3007,-1,0.95,1.25
30,106,1824,-1,0.95,1.1
30,107,1878,1,1.1,0.95
30,108,2731,1,2.0,1.85
30,109,2207,-1,1.1,1.1
30,110,2275,-1,2.0,1.7
30,111,1489,-1,1.85,0.95
30,112,1414,-1,1.4,1.4
30,113,3274,-1,2.0,1.55
30,114,1814,-1,2.0,1.25
30,115,1635,1,1.55,1.4
30,116,2428,1,1.4,0.95
30,117,2449,-1,2.0,0.95
30,118,3740,1,0.95,2.1
30,119,4164,1,1.4,1.1
31,0,1480,1,0.65,1.4
31,1,3177,1,1.55,1.25
31,2,3900,1,0.95,1.25
31,3,5292,1,0.65,2.0
31,4,1552,1,0.65,3.0
31,5,4648,-1,3.0,0.95
31,6,14245,-1,2.45,3.0
31,7,1780,-1,1.1,0.95
31,8,4559,-1,1.55,0.8
31,9,2237,-1,1.55,0.8
31,10,2321,1,0.95,2.45
31,11,7545,1,0.95,0.95
31,12,5244,-1,1.1,2.0
31,13,3704,-1,2.0,1.55
31,14,4901,-1,0.95,0.8
31,15,2171,-1,1.25,2.0
31,16,1894,1,0.8,0.95
31,17,1598,-1,1.4,0.8
31,18,1522,-1,1.1,2.0
31,19,5435,-1,2.0,0.95
31,20,5187,1,0.95,1.25
31,21,2052,-1,0.95,0.65
31,22,2403,-1,0.95,0.65
31,23,2227,-1,3.0,2.15
31,24,3698,-1,1.55,0.8
31,25,8463,-1,0.95,1.1
31,26,1223,1,1.25,1.55
31,27,1574,-1,0.95,1.4
31,28,5385,-1,0.65,1.1
31,29,1676,1,0.8,2.0
31,30,8470,1,0.8,0.8
31,31,2415,-1,2.0,1.4
31,32,3821,1,2.15,1.1
31,33,2149,-1,2.0,0.8
31,34,3543,-1,1.25,0.95
31,35,2202,1,1.55,0.8
31,36,4023,1,0.8,0.65
31,37,11433,-1,2.0,2.0
31,38,1719,1,1.4,1.4
31,39,2873,-1,0.95,2.0
31,40,7169,1,3.0,2.45
31,41,1860,1,2.0,2.0
31,42,1988,-1,0.8,1.4
31,43,6331,-1,1.25,1.55
31,44,3498,1,0.8,1.55
31,45,898,1,2.0,1.1
31,46,3277,1,0.8,1.55
31,47,2706,-1,2.0,1.55
31,48,1774,1,1.4,2.0
31,49,1668,1,0.95,0.95
31,50,2829,-1,0.8,0.8
31,51,1858,-1,2.45,1.1
31,52,3322,1,0.95,2.6
31,53,3567,1,0.95,1.1
31,54,2972,-1,0.8,1.55
31,55,1666,1,2.0,1.25
31,56,4056,-1,0.95,0.8
31,57,1525,1,2.15,3.0
31,58,7237,1,0.8,0.95
31,59,1352,-1,2.0,0.8
31,60,2543,1,1.1,0.95
31,61,3637,1,2.0,1.1
31,62,1600,1,2.0,1.4
31,63,2854,-1,1.1,0.95
31,64,2364,1,0.65,0.95
31,65,2009,-1,1.1,0.95
31,66,3297,-1,1.1,2.15
31,67,1736,-1,0.95,0.8
31,68,1755,1,0.8,1.55
31,69,1944,-1,1.4,0.65
31,70,3451,-1,1.4,0.8
31,71,2881,1,0.65,2.0
31,72,2998,-1,2.0,0.95
31,73,1472,1,0.95,3.0
31,74,1658,1,1.55,2.6
31,75,1643,-1,0.95,0.8
31,76,3285,-1,2.0,0.95
31,77,3929,-1,0.95,3.0
31,78,1597,1,0.95,1.1
31,79,9275,1,1.55,0.8
31,80,2665,1,0.8,0.95
31,81,1468,1,1.4,0.95
31,82,1650,1,1.1,0.65
31,83,1443,1,0.8,0.95
31,84,1416,1,0.95,1.1
31,85,2278,-1,0.65,0.8
31,86,1762,1,0.95,2.0
31,87,3197,-1,2.0,0.65
31,88,1831,-1,1.1,0.95
31,89,2131,1,1.55,2.0
31,90,2810,1,0.8,0.8
31,91,1542,1,0.95,1.25
31,92,1456,1,0.65,0.95
31,93,1458,1,1.1,2.0
31,94,2397,-1,1.25,0.95
31,95,1543,-1,1.25,0.95
31,96,1391,1,0.95,1.1
31,97,1941,1,0.8,2.0
31,98,1885,1,0.8,1.4
31,99,11333,1,0.8,1.55
31,100,2117,-1,1.4,2.0
31,101,1585,-1,1.1,2.0
31,102,1095,-1,0.95,0.95
31,103,1535,1,1.55,2.0
31,104,1783,-1,3.0,0.65
31,105,1601,-1,1.55,1.25
31,106,1704,-1,2.45,0.95
31,107,2208,-1,2.6,1.55
31,108,2087,1,0.95,2.0
31,109,1803,-1,0.8,0.8
31,110,2694,1,2.0,1.1
31,111,2252,-1,2.6,0.95
31,112,1967,1,3.0,0.95
31,113,1851,1,2.0,1.1
31,114,2652,1,1.1,2.45
31,115,1401,-1,2.45,3.0
31,116,5906,1,3.0,2.45
31,117,1265,-1,2.0,0.65
31,118,1119,-1,1.4,1.4
31,119,1277,-1,0.95,0.95
32,0,23506,1,2.9,2.45
32,1,3916,1,2.15,2.0
32,2,3182,-1,2.0,1.55
32,3,2204,-1,0.05,0.95
32,4,7430,1,1.85,0.65
32,5,4646,-1,0.5,2.45
32,6,6545,1,0.95,0.2
32,7,5827,-1,3.0,2.15
32,8,3360,1,2.6,0.0
32,9,6354,-1,1.85,2.0
32,10,4431,-1,2.3,2.0
32,11,5403,1,2.0,3.0
32,12,3320,-1,0.65,2.15
32,13,4550,1,2.15,0.2
32,14,6031,1,2.0,0.65
32,15,3199,1,0.2,0.5
32,16,6108,-1,2.45,1.7
32,17,5986,-1,1.25,2.0
32,18,1806,1,2.15,2.3
32,19,6331,-1,0.0,0.0
32,20,4742,-1,2.45,2.45
32,21,8464,-1,3.0,2.9
32,22,7012,-1,0.95,2.0
32,23,10804,1,2.3,1.55
32,24,11732,-1,2.3,2.0
32,25,3834,-1,0.0,2.15
32,26,8408,-1,2.0,1.7
32,27,3200,1,2.3,0.65
32,28,5024,1,1.55,2.9
32,29,5594,-1,0.05,2.9
32,30,6295,1,2.9,2.3
32,31,3387,1,2.15,2.3
32,32,4213,-1,0.65,0.5
32,33,9397,-1,0.2,2.15
32,34,4945,1,2.9,0.95
32,35,2142,1,2.0,0.0
32,36,6442,-1,3.0,1.55
32,37,3647,1,2.0,2.6
32,38,6292,-1,2.15,2.0
32,39,3688,1,1.1,0.65
32,40,3668,-1,0.0,2.45
32,41,2351,1,1.55,0.0
32,42,2922,-1,0.65,0.35
32,43,8109,-1,2.0,1.25
32,44,6807,1,2.9,3.0
32,45,5397,1,2.3,2.15
32,46,4856,-1,0.35,2.45
32,47,5477,1,2.0,2.15
32,48,5040,-1,0.65,1.1
32,49,3517,1,2.0,2.9
32,50,5849,-1,0.0,0.05
32,51,3049,-1,0.05,3.0
32,52,2881,1,0.2,2.3
32,53,5881,1,2.9,0.65
32,54,2165,-1,1.55,2.3
32,55,3136,1,2.3,0.0
32,56,4168,-1,2.3,2.9
32,57,4451,1,1.7,2.45
32,58,2554,-1,0.0,2.0
32,59,4393,1,2.3,2.0
32,60,3045,1,2.15,0.2
32,61,2918,-1,0.5,2.0
32,62,2859,1,0.95,0.2
32,63,2373,-1,1.1,3.0
32,64,6841,-1,0.5,0.2
32,65,3286,1,2.3,2.15
32,66,5436,1,2.45,0.5
32,67,2310,-1,0.65,1.85
32,68,2072,1,0.0,0.0
32,69,4191,-1,3.0,2.0
32,70,3020,1,2.45,3.0
32,71,3719,-1,2.3,2.15
32,72,1827,1,2.15,0.0
32,73,2118,-1,0.0,2.0
32,74,2403,1,2.0,0.95
32,75,2705,1,2.3,0.95
32,76,1522,1,1.55,1.25
32,77,4371,-1,2.0,3.0
32,78,1978,-1,0.65,2.0
32,79,1898,-1,2.0,1.85
32,80,2660,1,2.9,1.55
32,81,3199,1,0.0,2.6
32,82,4957,-1,0.2,0.95
32,83,6888,-1,2.0,2.3
32,84,9881,1,0.65,2.3
32,85,1935,-1,0.0,1.55
32,86,2920,-1,2.15,2.3
32,87,5997,1,0.65,2.9
32,88,4725,1,2.15,3.0
32,89,6044,-1,0.05,0.0
32,90,2217,1,1.7,2.0
32,91,3938,-1,2.0,0.5
32,92,1679,1,2.45,0.35
32,93,1891,-1,0.0,2.3
32,94,3311,-1,2.3,0.2
32,95,7395,-1,3.0,2.45
32,96,1532,-1,0.35,0.65
32,97,2516,-1,0.95,2.9
32,98,2287,1,0.95,0.05
32,99,2397,1,2.45,2.45
32,100,5064,1,0.5,0.65
32,101,3199,1,3.0,2.0
32,102,3206,1,2.0,2.3
32,103,3157,-1,3.0,1.1
32,104,3591,1,0.2,0.95
32,105,6740,1,2.0,0.0
32,106,2241,-1,1.55,2.0
32,107,1777,1,2.45,0.0
32,108,2463,-1,1.25,1.55
32,109,1785,-1,1.55,3.0
32,110,1538,1,3.0,0.05
32,111,3255,-1,2.0,2.15
32,112,3410,1,0.95,2.3
32,113,10780,1,0.2,2.15
32,114,3989,1,2.45,2.9
32,115,4521,1,2.15,0.65
32,116,10064,-1,2.9,0.05
32,117,4791,1,2.0,2.3
32,118,3853,1,2.9,2.0
32,119,1933,1,2.6,2.0
