parcode,trial,rt,choice,item_left,item_right,valid
0,0,1962,-1,15,0,
0,1,2899,-1,-10,-15,
0,2,1631,1,-15,15,
0,3,3203,-1,5,10,
0,4,1181,1,-10,10,
0,5,1513,1,10,5,
0,6,1188,-1,0,-10,
0,7,1515,-1,5,-5,
0,8,1853,1,-10,15,
0,9,1819,1,-5,5,
0,10,987,-1,-5,15,
0,11,1125,1,0,-5,
0,12,1345,1,10,-5,
0,13,2019,-1,-5,0,
0,14,873,1,-15,0,
0,15,1205,1,15,5,
0,16,1085,1,-15,5,
0,17,1133,-1,0,15,
0,18,981,1,15,-10,
0,19,908,1,10,0,
0,20,1727,1,-15,10,
0,21,1365,-1,-15,15,
0,22,1933,-1,10,-10,
0,23,1468,-1,5,-10,
0,24,1109,1,-10,5,
0,25,1589,1,10,0,
0,26,1109,-1,10,-15,
0,27,2411,1,0,-5,
0,28,1891,1,-15,5,
0,29,1333,1,10,-5,
0,30,1239,-1,0,15,
0,31,1801,1,15,-15,
0,32,1403,-1,5,10,
0,33,2121,1,-15,10,
0,34,1639,-1,15,-15,
0,35,999,1,15,5,
0,36,1009,1,15,-5,
0,37,1783,1,-10,-15,
0,38,2327,-1,-10,15,
0,39,1625,-1,5,15,
0,40,1629,-1,-15,15,
0,41,1259,1,-15,5,
0,42,1109,1,-10,0,
0,43,1127,1,-10,10,
0,44,1311,1,-5,5,
0,45,2849,1,10,15,
0,46,1737,1,10,-5,
0,47,1765,1,0,10,
0,48,1079,1,15,5,
0,49,1253,1,5,0,
0,50,3189,-1,-10,10,
0,51,953,1,5,-5,
0,52,1885,1,-15,-5,
0,53,1082,1,5,-5,
0,54,2425,-1,-5,15,
0,55,3529,1,-15,15,
0,56,2403,-1,10,15,
0,57,1975,-1,0,-5,
0,58,1153,-1,-10,-15,
0,59,1171,1,10,5,
0,60,1393,-1,5,-10,
0,61,1583,1,15,10,
0,62,1397,1,-15,0,
0,63,1561,-1,5,10,
0,64,1063,1,15,-10,
0,65,1681,-1,5,0,
0,66,1833,1,-5,0,
0,67,1013,1,-10,5,
0,68,1505,-1,5,15,
0,69,1149,-1,-5,15,
0,70,1023,1,-10,5,
0,71,1877,-1,5,-15,
0,72,1497,-1,5,-10,
0,73,1175,-1,5,-15,
0,74,1092,-1,-10,15,
0,75,1445,-1,0,-15,
0,76,1085,-1,-5,-15,
0,77,1681,1,15,10,
0,78,1797,1,-5,0,
0,79,1138,-1,-5,10,
0,80,977,-1,-5,-15,
0,81,977,1,10,0,
0,82,1503,1,10,-10,
0,83,1835,-1,-5,-10,
0,84,992,1,-10,0,
0,85,1237,1,10,5,
0,86,2129,-1,0,5,
0,87,965,1,-10,-5,
0,88,1632,-1,15,-10,
0,89,1475,-1,10,-15,
0,90,1777,-1,0,-15,
0,91,1551,1,15,0,
0,92,1466,-1,10,-15,
0,93,1395,1,10,0,
0,94,3322,-1,0,10,
0,95,2569,1,-15,-10,
0,96,3293,-1,0,5,
0,97,1511,-1,0,-10,
0,98,1173,-1,0,15,
0,99,1423,1,-10,-5,
0,100,1421,1,-5,5,
0,101,2412,1,-15,0,
0,102,1585,1,15,0,
0,103,1095,1,-15,-5,
0,104,1488,1,-15,-10,
0,105,1597,-1,0,-10,
0,106,1219,1,10,-10,
0,107,1773,-1,-5,10,
0,108,1410,-1,-5,-10,
0,109,3073,1,15,-5,
0,110,2295,1,-15,10,
0,111,2589,-1,-5,5,
0,112,1437,-1,-5,-15,
0,113,1389,1,5,-10,
0,114,3913,-1,-15,5,
0,115,3095,-1,-15,15,
0,116,1363,-1,-15,15,
0,117,1191,-1,0,15,
0,118,1735,1,-15,0,
0,119,1325,-1,5,15,
0,120,1318,1,-15,-10,
0,121,2537,1,15,10,
0,122,1288,-1,-5,-15,
0,123,2431,-1,10,15,
0,124,2750,-1,5,10,
0,125,1097,1,15,-10,
0,126,1127,1,15,-5,
0,127,1739,-1,-5,-10,
0,128,1095,-1,-10,10,
0,129,1356,1,5,0,
0,130,1081,-1,-5,5,
0,131,1159,1,5,-5,
0,132,1281,-1,-10,10,
0,133,3017,1,-5,0,
0,134,1499,1,15,5,
0,135,1811,1,-15,5,
0,136,917,-1,-5,15,
0,137,1653,-1,5,10,
0,138,1052,1,15,0,
0,139,3078,1,0,10,
0,140,1133,1,-5,0,
0,141,1315,1,10,-5,
0,142,1527,-1,0,-5,
0,143,1367,1,-15,10,
0,144,1736,-1,-15,15,
0,145,995,-1,0,-10,
0,146,1043,1,15,10,
0,147,1493,1,-15,-10,
0,148,1661,-1,5,10,
0,149,943,1,15,-5,
0,150,1513,-1,5,0,
0,151,1063,1,-15,-10,
0,152,2163,-1,5,-15,
0,153,1005,1,-10,5,
0,154,947,-1,0,-10,
0,155,1703,-1,15,-15,
0,156,1141,-1,0,10,
0,157,1001,-1,0,-15,
0,158,960,-1,5,-15,
0,159,1247,1,10,5,
0,160,1069,-1,5,-5,
0,161,1033,1,-15,5,
0,162,1597,-1,0,5,
0,163,1348,-1,-10,10,
0,164,1297,-1,-5,10,
0,165,947,1,15,-5,
0,166,1091,-1,0,-5,
0,167,950,-1,-5,5,
0,168,1085,1,-10,-5,
0,169,1329,-1,-5,-15,
0,170,2841,1,5,-5,
0,171,1172,1,15,-10,
0,172,922,-1,-5,-10,
0,173,1241,1,-10,-5,
0,174,1215,-1,-5,10,
0,175,1075,1,15,5,
0,176,1108,1,-10,0,
0,177,801,1,15,5,
0,178,1097,1,10,0,
0,179,922,1,-15,5,
0,180,1016,-1,5,15,
0,181,1212,-1,-5,-15,
0,182,1239,-1,-10,-15,
0,183,1293,1,-5,-10,
0,184,815,1,15,-10,
0,185,1109,-1,-5,15,
0,186,1190,-1,-10,-15,
0,187,889,1,-15,-5,
0,188,1834,1,5,-10,
0,189,868,1,10,0,
0,190,889,-1,5,15,
0,191,1303,1,-15,0,
0,192,1138,-1,-5,15,
0,193,1327,1,10,-5,
0,194,1464,-1,0,15,
0,195,1191,-1,-5,15,
0,196,1201,1,-10,5,
0,197,3557,1,10,-10,
0,198,1806,1,-15,10,
0,199,1215,-1,15,-5,
0,200,847,-1,0,15,
0,201,1174,-1,15,-10,
0,202,1065,1,-10,0,
0,203,1091,-1,0,5,
0,204,631,-1,0,-15,
0,205,1047,1,-10,10,
0,206,1543,1,10,15,
0,207,1056,1,-5,10,
0,208,1505,1,5,15,
0,209,910,1,-10,-5,
0,210,960,-1,0,-15,
0,211,931,-1,5,0,
0,212,1389,-1,-15,-10,
0,213,1131,1,15,5,
0,214,1159,-1,5,-15,
0,215,985,-1,5,-10,
0,216,1271,-1,15,-15,
0,217,1189,1,10,5,
0,218,1632,1,0,5,
0,219,1133,1,15,10,
0,220,964,1,15,10,
0,221,1193,1,-10,15,
0,222,1387,1,-10,0,
0,223,1152,-1,-10,15,
0,224,1319,1,5,-5,
0,225,1173,-1,0,10,
0,226,823,-1,0,-5,
0,227,1017,1,-15,0,
0,228,1121,-1,-5,10,
0,229,954,1,10,-10,
0,230,1047,1,10,-5,
0,231,1940,-1,-10,-15,
0,232,1217,-1,0,10,
0,233,2262,-1,-10,5,
0,234,1243,-1,-10,15,
0,235,1111,1,10,0,
0,236,963,-1,0,15,
0,237,1147,1,-10,-5,
0,238,1263,-1,15,-15,
0,239,1186,1,-15,-5,
0,240,1089,-1,0,5,
0,241,1055,1,-15,-5,
0,242,1167,-1,-5,10,
0,243,2048,-1,0,-5,
0,244,1032,-1,0,-10,
0,245,1296,-1,0,-15,
0,246,1194,1,10,5,
0,247,1782,1,10,5,
0,248,1295,-1,0,-10,
0,249,941,1,15,-10,
0,250,1175,-1,-15,15,
0,251,914,-1,5,0,
0,252,1261,-1,10,15,
0,253,1254,1,-10,0,
0,254,1328,-1,-15,10,
0,255,1025,1,-10,5,
0,256,1263,-1,5,10,
0,257,1342,-1,-10,15,
0,258,1016,1,-15,0,
0,259,1387,-1,-10,10,
0,260,973,1,15,0,
0,261,1185,-1,0,15,
0,262,1295,1,-5,0,
0,263,979,-1,5,-10,
0,264,1324,-1,10,-10,
0,265,1137,-1,10,-10,
0,266,1161,-1,-10,15,
0,267,1226,-1,0,5,
0,268,1114,-1,10,-15,
0,269,1012,1,-15,-5,
0,270,958,1,-5,5,
0,271,1074,-1,10,-15,
0,272,1052,1,15,0,
0,273,1558,-1,-15,-10,
0,274,1196,-1,10,-5,
0,275,2310,-1,15,-5,
0,276,1251,1,-15,-5,
0,277,1267,-1,10,-15,
0,278,1113,-1,5,15,
0,279,970,1,-15,0,
0,280,1268,1,5,10,
0,281,935,1,-5,0,
0,282,1163,-1,0,-10,
0,283,1104,-1,15,-15,
0,284,1068,1,-10,0,
0,285,1215,-1,-5,-10,
0,286,2176,1,-10,-5,
0,287,1342,-1,0,10,
0,288,1520,1,15,0,
0,289,1156,-1,-5,-15,
0,290,1226,1,-15,-5,
0,291,788,-1,0,10,
0,292,1134,1,5,0,
0,293,961,1,-10,-15,
0,294,1021,-1,5,-15,
0,295,1288,-1,-5,-10,
0,296,2493,-1,5,-5,
0,297,1494,-1,-5,-15,
0,298,1148,1,-5,10,
0,299,1071,-1,0,-5,
0,300,1027,1,15,-5,
0,301,1422,1,-15,10,
0,302,1163,1,5,0,
0,303,1347,1,-10,0,
0,304,925,1,10,-10,
0,305,1192,1,15,-15,
0,306,952,1,15,0,
0,307,1505,1,-15,10,
0,308,1835,1,5,-15,
0,309,882,1,10,-5,
0,310,787,1,10,0,
0,311,1934,-1,5,-15,
0,312,1404,-1,-5,15,
0,313,1008,1,15,5,
0,314,1339,1,15,10,
0,315,1413,-1,10,-15,
0,316,1062,1,5,-10,
0,317,952,-1,0,-15,
0,318,1255,1,-5,-10,
0,319,1156,-1,5,15,
0,320,1378,-1,10,-15,
0,321,1227,-1,0,5,
0,322,1252,-1,-10,-15,
0,323,960,1,-15,-10,
0,324,1295,1,-10,-5,
0,325,1393,-1,10,15,
0,326,1202,-1,-10,5,
0,327,1224,-1,-5,0,
0,328,1740,1,-5,5,
0,329,2111,-1,15,0,
0,330,1637,1,-10,-15,
0,331,1543,1,-15,15,
0,332,2951,1,5,10,
0,333,999,1,-10,10,
0,334,2327,1,10,5,
0,335,1099,-1,0,-10,
0,336,1167,-1,5,-5,
0,337,1331,1,-10,15,
0,338,1063,1,-5,5,
0,339,1205,1,-5,15,
0,340,1267,-1,0,-5,
0,341,1207,-1,10,-5,
0,342,1251,1,-5,0,
0,343,1009,1,-15,0,
0,344,1299,1,15,5,
0,345,911,1,-15,5,
0,346,1973,-1,0,15,
0,347,1183,-1,15,-10,
0,348,1401,1,10,0,
0,349,2111,1,-15,10,
0,350,2569,-1,-15,15,
0,351,1717,-1,10,-10,
0,352,3211,-1,5,-10,
0,353,1111,1,-10,5,
0,354,1208,1,10,0,
0,355,1521,1,10,-15,
0,356,2487,1,0,-5,
0,357,2571,-1,-15,5,
0,358,1019,1,10,-5,
0,359,1567,-1,0,15,
0,360,1122,1,15,-15,
0,361,1310,-1,5,10,
0,362,1549,-1,-15,10,
0,363,1151,1,15,-15,
0,364,2067,1,15,5,
0,365,1075,1,15,-5,
0,366,1363,1,-10,-15,
0,367,1235,-1,-10,15,
0,368,1887,-1,5,15,
0,369,1077,-1,-15,15,
0,370,1003,-1,-15,5,
0,371,1653,-1,-10,0,
0,372,1207,-1,-10,10,
0,373,1011,-1,-5,5,
0,374,1651,1,10,15,
0,375,1027,1,10,-5,
0,376,1171,-1,0,10,
0,377,1557,1,15,5,
0,378,981,1,5,0,
0,379,1093,-1,-10,10,
0,380,1361,1,5,-5,
0,381,1339,1,-15,-5,
0,382,997,1,5,-5,
0,383,1291,-1,-5,15,
0,384,2089,-1,-15,15,
0,385,1211,1,10,15,
0,386,1207,1,0,-5,
0,387,1605,-1,-10,-15,
0,388,989,1,10,5,
0,389,1281,-1,5,-10,
0,390,1383,-1,15,10,
0,391,1255,1,-15,0,
0,392,1455,-1,5,10,
0,393,1105,1,15,-10,
0,394,1333,1,5,0,
0,395,1773,-1,-5,0,
0,396,1019,1,-10,5,
0,397,1419,-1,5,15,
0,398,961,-1,-5,15,
0,399,1751,-1,-10,5,
0,400,1881,1,5,-15,
0,401,1851,1,5,-10,
0,402,1123,-1,5,-15,
0,403,1389,-1,-10,15,
0,404,1137,-1,0,-15,
0,405,1305,-1,-5,-15,
0,406,1173,-1,-5,0,
0,407,1219,-1,-5,10,
0,408,1245,-1,-5,-15,
0,409,1021,1,10,0,
0,410,1381,-1,-5,-10,
0,411,1807,1,-10,0,
0,412,1363,1,10,5,
0,413,1329,-1,0,5,
0,414,1341,1,-10,-5,
0,415,858,1,15,-10,
0,416,2195,-1,0,-15,
0,417,1513,1,15,0,
0,418,1267,1,10,-15,
0,419,1083,1,10,0,
0,420,1175,-1,0,10,
0,421,1682,-1,-15,-10,
0,422,1375,-1,0,5,
0,423,1461,-1,0,-10,
0,424,875,-1,0,15,
0,425,1469,1,-10,-5,
0,426,1181,-1,-5,5,
0,427,1261,1,-15,0,
0,428,941,1,15,0,
0,429,1028,1,-15,-5,
0,430,1333,1,-15,-10,
0,431,2033,-1,0,-10,
0,432,1441,1,10,-10,
0,433,1191,-1,-5,10,
0,434,940,-1,-5,-10,
0,435,887,1,15,-5,
0,436,1303,-1,-15,10,
0,437,1607,-1,-5,5,
0,438,1277,-1,-5,-15,
0,439,1687,-1,5,-10,
0,440,2833,1,-15,5,
0,441,1915,1,-15,15,
0,442,1251,-1,-15,15,
0,443,1117,-1,0,15,
0,444,1477,1,-15,0,
0,445,1929,-1,5,15,
0,446,1281,1,-15,-10,
0,447,985,1,15,10,
0,448,1257,-1,-5,-15,
0,449,1503,-1,10,15,
0,450,1773,1,5,10,
0,451,1147,1,15,-10,
0,452,1313,1,15,-5,
0,453,1437,-1,-5,-10,
0,454,1033,-1,-10,10,
0,455,999,-1,5,0,
0,456,1363,-1,-5,5,
0,457,857,-1,5,-5,
0,458,1476,-1,-10,10,
0,459,1161,-1,-5,0,
0,460,951,1,15,5,
0,461,1079,1,-15,5,
0,462,1347,-1,-5,15,
0,463,1605,-1,5,10,
0,464,837,1,15,0,
0,465,1770,-1,0,10,
0,466,1125,1,-5,0,
0,467,1045,-1,10,-5,
0,468,977,-1,0,-5,
0,469,1153,-1,0,-10,
0,470,1075,1,15,10,
0,471,1349,1,-15,-10,
0,472,1157,-1,5,10,
0,473,1679,-1,15,-5,
0,474,1209,-1,5,0,
0,475,1647,1,-15,-10,
0,476,1111,-1,5,-15,
0,477,1067,1,-10,5,
0,478,827,-1,0,-10,
0,479,1195,-1,15,-15,
0,480,1821,-1,0,10,
0,481,983,-1,0,-15,
0,482,727,-1,5,-15,
0,483,681,-1,10,5,
0,484,873,-1,5,-5,
0,485,1003,1,-15,5,
0,486,1663,1,0,5,
0,487,1665,-1,-10,10,
0,488,1321,1,-5,10,
0,489,887,-1,15,-5,
0,490,1365,-1,0,-5,
0,491,1463,1,-5,5,
0,492,1583,1,-10,-5,
0,493,1228,-1,-5,-15,
0,494,1899,-1,5,-5,
0,495,953,1,15,-10,
0,496,1287,-1,-5,-10,
0,497,1097,1,-10,-5,
0,498,1141,-1,-5,10,
0,499,968,1,15,5,
0,500,1179,1,-10,0,
0,501,963,1,15,5,
0,502,1123,1,10,0,
0,503,915,1,-15,5,
0,504,1255,-1,5,15,
0,505,1487,-1,-5,-15,
0,506,1161,1,-10,-15,
0,507,1619,-1,-5,-10,
0,508,1049,1,15,-10,
0,509,1109,-1,-5,15,
0,510,1219,-1,-10,-15,
0,511,959,1,-15,-5,
0,512,2995,1,10,0,
0,513,959,-1,5,15,
0,514,713,1,-15,0,
0,515,1219,-1,-5,15,
0,516,2423,-1,10,-5,
0,517,1099,-1,0,15,
0,518,1417,1,-10,5,
0,519,1209,-1,10,-10,
0,520,1341,1,-15,10,
0,521,1282,1,10,15,
0,522,1027,1,15,-5,
0,523,1049,-1,0,15,
0,524,1673,1,15,-10,
0,525,1317,1,-10,0,
0,526,2248,-1,0,5,
0,527,782,-1,0,-15,
0,528,789,1,-10,10,
0,529,1621,-1,10,15,
0,530,1339,1,-5,10,
0,531,1301,-1,5,15,
0,532,879,1,-10,-5,
0,533,1121,-1,0,-15,
0,534,1815,1,5,0,
0,535,1501,-1,-15,-10,
0,536,1317,1,15,5,
0,537,1227,-1,5,-15,
0,538,1212,-1,5,-10,
0,539,1414,-1,15,-15,
0,540,1173,1,10,5,
0,541,2339,-1,0,5,
0,542,1024,1,15,10,
0,543,1685,1,15,10,
0,544,905,1,-10,15,
0,545,1415,1,-10,0,
0,546,1629,-1,-10,15,
0,547,1267,1,5,-5,
0,548,1419,-1,0,10,
0,549,1789,1,0,-5,
0,550,1079,1,-15,0,
0,551,1150,-1,-5,10,
0,552,965,1,10,-10,
0,553,1135,1,10,-5,
0,554,1104,-1,-10,-15,
0,555,721,-1,0,10,
0,556,1422,1,-10,5,
0,557,1201,-1,-10,15,
0,558,1051,1,10,0,
0,559,1047,-1,0,15,
0,560,1269,1,-10,-5,
0,561,1199,-1,15,-15,
0,562,949,1,-15,-5,
0,563,1145,-1,0,5,
0,564,751,1,-15,-5,
0,565,755,-1,-5,10,
0,566,2745,-1,0,-5,
0,567,1295,-1,0,-10,
0,568,1104,-1,0,-15,
0,569,2174,1,10,5,
0,570,1172,1,10,5,
0,571,1274,-1,0,-10,
0,572,1057,1,15,-10,
0,573,845,-1,-15,15,
0,574,974,-1,5,0,
0,575,1116,-1,10,15,
0,576,1703,1,-10,0,
0,577,871,1,-15,10,
0,578,1851,1,-10,5,
0,579,1130,-1,5,10,
0,580,775,1,-10,15,
0,581,993,1,-15,0,
0,582,1142,-1,10,15,
0,583,1049,-1,-10,10,
0,584,959,1,15,0,
0,585,889,-1,0,15,
0,586,1073,-1,0,-15,
0,587,1140,1,-5,0,
0,588,1122,-1,5,-10,
0,589,1629,-1,10,-10,
0,590,1143,1,10,-10,
0,591,1232,1,15,-15,
0,592,1404,-1,-10,15,
0,593,999,-1,0,5,
0,594,1274,-1,10,-15,
0,595,1031,1,-15,-5,
0,596,1413,1,-5,5,
0,597,1189,1,15,10,
0,598,1219,-1,10,-15,
0,599,1252,1,10,5,
0,600,791,1,15,0,
0,601,1623,-1,-15,-10,
0,602,1248,1,10,-5,
0,603,799,1,15,-5,
0,604,1150,-1,-15,-5,
0,605,879,-1,-15,5,
0,606,1084,1,10,-15,
0,607,1285,-1,5,15,
0,608,776,-1,-15,0,
0,609,1311,-1,5,10,
0,610,1306,1,-5,0,
0,611,862,-1,0,-10,
0,612,1819,1,15,-15,
0,613,1942,-1,-10,0,
0,614,1471,1,-5,-10,
0,615,1427,1,-10,-5,
0,616,977,-1,0,10,
0,617,843,1,15,0,
0,618,1237,-1,-5,-15,
0,619,2354,-1,-15,-5,
0,620,1069,-1,0,10,
0,621,1203,1,5,0,
0,622,924,1,-10,-15,
0,623,1215,-1,5,-15,
0,624,1151,-1,-5,-10,
0,625,1399,1,5,-5,
0,626,1285,-1,-5,-15,
0,627,1434,-1,-5,10,
0,628,999,-1,0,-5,
0,629,1264,1,15,-5,
0,630,1435,1,-15,10,
0,631,1219,1,5,0,
0,632,1023,1,-10,0,
0,633,1475,-1,10,-10,
0,634,2112,1,15,-15,
0,635,998,1,15,0,
0,636,1341,1,-15,10,
0,637,1515,-1,5,-15,
0,638,961,1,10,-5,
0,639,958,1,10,0,
0,640,1600,-1,5,-15,
0,641,1352,-1,-5,15,
0,642,1055,1,15,5,
0,643,1197,1,15,10,
0,644,1523,-1,10,-15,
0,645,1460,-1,5,-10,
0,646,1191,-1,0,-15,
0,647,1360,-1,-5,-10,
0,648,1159,-1,5,15,
0,649,1302,-1,10,-15,
0,650,1396,-1,0,5,
0,651,1271,-1,-10,-15,
0,652,973,1,-15,-10,
0,653,2192,1,-10,-5,
0,654,1221,-1,10,15,
0,655,1183,1,-10,5,
0,656,915,-1,-5,0,
0,657,1204,1,-5,5,
0,658,1868,-1,15,0,
0,659,1277,1,-10,-15,
0,660,855,1,-15,15,
0,661,1749,-1,5,10,
0,662,1521,-1,-10,10,
0,663,983,1,10,5,
0,664,1335,-1,0,-10,
0,665,779,1,5,-5,
0,666,895,1,-10,15,
0,667,1025,1,-5,5,
0,668,1779,-1,-5,15,
0,669,1055,-1,0,-5,
0,670,795,1,10,-5,
0,671,1275,1,-5,0,
0,672,915,1,-15,0,
0,673,898,1,15,5,
0,674,1943,1,-15,5,
0,675,1001,-1,0,15,
0,676,1813,1,15,-10,
0,677,921,1,10,0,
0,678,1565,-1,-15,10,
0,679,1175,-1,-15,15,
0,680,1903,-1,10,-10,
0,681,1393,-1,5,-10,
0,682,2115,1,-10,5,
0,683,1323,1,10,0,
0,684,1709,-1,10,-15,
0,685,1697,-1,0,-5,
0,686,1431,-1,-15,5,
0,687,975,1,10,-5,
0,688,1135,-1,0,15,
0,689,975,1,15,-15,
0,690,1195,-1,5,10,
0,691,1097,-1,-15,10,
0,692,879,1,15,-15,
0,693,827,1,15,5,
0,694,829,1,15,-5,
0,695,1091,1,-10,-15,
0,696,1001,-1,-10,15,
0,697,1093,-1,5,15,
0,698,937,-1,-15,15,
0,699,979,-1,-15,5,
0,700,1305,1,-10,0,
0,701,1295,-1,-10,10,
0,702,1069,-1,-5,5,
0,703,1371,1,10,15,
0,704,1029,1,10,-5,
0,705,953,-1,0,10,
0,706,941,1,15,5,
0,707,1125,1,5,0,
0,708,1159,-1,-10,10,
0,709,893,1,5,-5,
0,710,1441,1,-15,-5,
0,711,1057,1,5,-5,
0,712,1211,-1,-5,15,
0,713,2559,1,-15,15,
0,714,1053,1,10,15,
0,715,845,1,0,-5,
0,716,1261,-1,-10,-15,
0,717,881,1,10,5,
0,718,1827,-1,5,-10,
0,719,1229,-1,15,10,
0,720,1483,1,-15,0,
0,721,1293,-1,5,10,
0,722,935,1,15,-10,
0,723,945,1,5,0,
0,724,1269,-1,-5,0,
0,725,1123,-1,-10,5,
0,726,1713,-1,5,15,
0,727,1150,-1,-5,15,
0,728,1041,-1,-10,5,
0,729,983,1,5,-15,
0,730,951,1,5,-10,
0,731,2141,1,5,-15,
0,732,1035,-1,-10,15,
0,733,1511,-1,0,-15,
0,734,1425,-1,-5,-15,
0,735,2546,1,15,10,
0,736,1015,-1,-5,0,
0,737,887,-1,-5,10,
0,738,1443,-1,-5,-15,
0,739,985,1,10,0,
0,740,717,1,10,-10,
0,741,1647,-1,-5,-10,
0,742,1365,-1,-10,0,
0,743,921,1,10,5,
0,744,1139,-1,0,5,
0,745,1379,1,-10,-5,
0,746,987,1,15,-10,
0,747,1129,1,10,-15,
0,748,1457,-1,0,-15,
0,749,931,1,15,0,
0,750,1075,1,10,-15,
0,751,937,1,10,0,
0,752,1169,-1,0,10,
0,753,1231,1,-15,-10,
0,754,1169,-1,0,5,
0,755,1549,-1,0,-10,
0,756,1117,-1,0,15,
0,757,1159,1,-10,-5,
0,758,1035,-1,-5,5,
0,759,1023,1,-15,0,
0,760,1005,1,15,0,
0,761,1063,1,-15,-5,
0,762,1099,1,-15,-10,
0,763,1385,-1,0,-10,
0,764,883,1,10,-10,
0,765,1073,-1,-5,10,
0,766,887,-1,-5,-10,
0,767,749,1,15,-5,
0,768,1252,-1,-15,10,
0,769,1687,-1,-5,5,
0,770,1299,-1,-5,-15,
0,771,1612,-1,5,-10,
0,772,1913,1,-15,5,
0,773,1658,-1,-15,15,
0,774,1894,1,-15,15,
0,775,887,-1,0,15,
0,776,1065,1,-15,0,
0,777,1372,-1,5,15,
0,778,1222,1,-15,-10,
0,779,987,1,15,10,
0,780,907,-1,-5,-15,
0,781,1297,-1,10,15,
0,782,1485,1,5,10,
0,783,1513,1,15,-10,
0,784,997,1,15,-5,
0,785,1689,-1,-5,-10,
0,786,1195,-1,-10,10,
0,787,1230,1,5,0,
0,788,1231,-1,-5,5,
0,789,965,1,5,-5,
0,790,2225,-1,-10,10,
0,791,1067,-1,-5,0,
0,792,979,1,15,5,
0,793,1035,1,-15,5,
0,794,941,-1,-5,15,
0,795,2711,-1,5,10,
0,796,993,1,15,0,
0,797,1107,-1,0,10,
0,798,1091,1,-5,0,
0,799,920,1,10,-5,
0,800,1153,-1,0,-5,
0,801,957,1,-15,10,
0,802,1033,-1,-15,15,
0,803,1025,-1,0,-10,
0,804,1035,1,15,10,
0,805,925,1,-15,-10,
0,806,915,-1,5,10,
0,807,761,1,15,-5,
0,808,1655,1,5,0,
0,809,927,1,-15,-10,
0,810,1357,-1,5,-15,
0,811,1501,-1,-10,5,
0,812,1199,-1,0,-10,
0,813,1565,1,15,-15,
0,814,784,-1,0,10,
0,815,1113,-1,0,-15,
0,816,1732,1,5,-15,
0,817,947,1,10,5,
0,818,1273,1,5,-5,
0,819,1067,1,-15,5,
0,820,1540,-1,0,5,
0,821,1173,-1,-10,10,
0,822,1247,-1,-5,10,
0,823,1033,1,15,-5,
0,824,1598,-1,0,-5,
0,825,2341,1,-5,5,
0,826,1391,1,-10,-5,
0,827,1265,-1,-5,-15,
0,828,1303,1,5,-5,
0,829,851,1,15,-10,
0,830,1439,1,-5,-10,
0,831,1225,-1,-10,-5,
0,832,1153,-1,-5,10,
0,833,1025,1,15,5,
0,834,1175,1,-10,0,
0,835,813,1,15,5,
0,836,1197,1,10,0,
0,837,1215,1,-15,5,
0,838,1135,-1,5,15,
0,839,1337,-1,-5,-15,
0,840,1533,-1,-10,-15,
0,841,1035,-1,-5,-10,
0,842,823,1,15,-10,
0,843,1127,-1,-5,15,
0,844,1251,-1,-10,-15,
0,845,1124,1,-15,-5,
0,846,1597,-1,5,-10,
0,847,951,1,10,0,
0,848,1163,-1,5,15,
0,849,1217,1,-15,0,
0,850,967,-1,-5,15,
0,851,969,1,10,-5,
0,852,1011,-1,0,15,
0,853,1317,1,-5,15,
0,854,954,1,-10,5,
0,855,1065,-1,10,-10,
0,856,917,1,-15,10,
0,857,1109,1,10,15,
0,858,1079,-1,15,-5,
0,859,1201,-1,0,15,
0,860,1157,-1,15,-10,
0,861,851,1,-10,0,
0,862,1299,1,0,5,
0,863,1127,-1,0,-15,
0,864,957,1,-10,10,
0,865,1205,1,10,15,
0,866,1085,1,-5,10,
0,867,1289,1,5,15,
0,868,771,1,-10,-5,
0,869,859,-1,0,-15,
0,870,1706,1,5,0,
0,871,1231,-1,-15,-10,
0,872,1113,1,15,5,
0,873,1273,-1,5,-15,
0,874,1088,-1,5,-10,
0,875,1067,-1,15,-15,
0,876,995,1,10,5,
0,877,1023,-1,0,5,
0,878,1099,1,15,10,
0,879,933,1,15,10,
0,880,937,1,-10,15,
0,881,1021,1,-10,0,
0,882,1963,-1,-10,15,
0,883,1053,1,5,-5,
0,884,1193,-1,0,10,
0,885,1196,1,0,-5,
0,886,861,1,-15,0,
0,887,1115,-1,-5,10,
0,888,1219,-1,10,-10,
0,889,1043,1,10,-5,
0,890,1115,-1,-10,-15,
0,891,1221,-1,0,10,
0,892,1841,-1,-10,5,
0,893,1271,-1,-10,15,
0,894,1046,1,10,0,
0,895,1447,-1,0,15,
0,896,1263,1,-10,-5,
0,897,1259,-1,15,-15,
0,898,1123,1,-15,-5,
0,899,1364,-1,0,5,
0,900,1023,1,-15,-5,
0,901,985,-1,-5,10,
0,902,1479,-1,0,-5,
0,903,1123,-1,0,-10,
0,904,1083,-1,0,-15,
0,905,1311,1,10,5,
0,906,1297,1,10,5,
0,907,1269,-1,0,-10,
0,908,901,1,15,-10,
0,909,995,-1,-15,15,
0,910,1747,1,5,0,
0,911,1621,-1,10,15,
0,912,1517,-1,-10,0,
0,913,1239,-1,-15,10,
0,914,1273,-1,-10,5,
0,915,1355,-1,5,10,
0,916,979,-1,-10,15,
0,917,1338,1,-15,0,
0,918,1105,-1,10,15,
0,919,1747,-1,-10,10,
0,920,826,1,15,0,
0,921,837,-1,0,15,
0,922,795,-1,0,-15,
0,923,1383,1,-5,0,
0,924,920,1,5,-10,
0,925,995,1,10,-10,
0,926,903,1,10,-10,
0,927,807,1,15,-15,
0,928,903,-1,-10,15,
0,929,921,-1,0,5,
0,930,1081,1,10,-15,
0,931,1259,1,-15,-5,
0,932,1283,1,-5,5,
0,933,931,1,15,10,
0,934,1019,-1,10,-15,
0,935,773,1,10,5,
0,936,693,1,15,0,
0,937,1525,-1,-15,-10,
0,938,1087,-1,10,-5,
0,939,1189,-1,15,-5,
0,940,787,1,-15,-5,
0,941,1081,1,-15,5,
0,942,1147,-1,10,-15,
0,943,1251,-1,5,15,
0,944,895,1,-15,0,
0,945,1133,-1,5,10,
0,946,909,1,-5,0,
0,947,845,-1,0,-10,
0,948,759,1,15,-15,
0,949,677,1,-10,0,
0,950,1003,-1,-5,-10,
0,951,905,1,-10,-5,
0,952,936,-1,0,10,
0,953,1191,1,15,0,
0,954,1099,-1,-5,-15,
0,955,1292,1,-15,-5,
0,956,1147,-1,0,10,
0,957,1415,-1,5,0,
0,958,1521,1,-10,-15,
0,959,1530,-1,5,-15,
0,960,1447,-1,-5,-10,
0,961,1132,-1,5,-5,
0,962,1721,-1,-5,-15,
0,963,1459,-1,-5,10,
0,964,1405,-1,0,-5,
0,965,721,1,15,-5,
0,966,1201,1,-15,10,
0,967,1177,1,5,0,
0,968,983,1,-10,0,
0,969,1383,1,10,-10,
0,970,1885,1,15,-15,
0,971,943,1,15,0,
0,972,1771,1,-15,10,
0,973,1105,-1,5,-15,
0,974,1227,1,10,-5,
0,975,1058,1,10,0,
0,976,1233,-1,5,-15,
0,977,1215,-1,-5,15,
0,978,1113,1,15,5,
0,979,1039,1,15,10,
0,980,1283,-1,10,-15,
0,981,1037,1,5,-10,
0,982,725,-1,0,-15,
0,983,2275,1,-5,-10,
0,984,949,-1,5,15,
0,985,973,-1,10,-15,
0,986,825,-1,0,5,
0,987,1283,-1,-10,-15,
0,988,973,1,-15,-10,
0,989,1027,1,-10,-5,
0,990,1741,-1,10,15,
0,991,1371,-1,-10,5,
0,992,1505,1,-5,0,
0,993,2074,1,-5,5,
0,994,853,1,15,0,
0,995,1853,1,-10,-15,
0,996,1311,-1,-15,15,
0,997,1303,-1,5,10,
0,998,1599,-1,-10,10,
0,999,1115,1,10,5,
0,1000,907,-1,0,-10,
0,1001,1245,1,5,-5,
0,1002,1015,1,-10,15,
0,1003,1753,1,-5,5,
0,1004,1349,-1,-5,15,
0,1005,1063,-1,0,-5,
0,1006,1864,1,10,-5,
0,1007,1257,1,-5,0,
0,1008,1015,1,-15,0,
0,1009,1027,1,15,5,
0,1010,1109,1,-15,5,
0,1011,1277,-1,0,15,
0,1012,3547,-1,15,-10,
0,1013,1119,1,10,0,
0,1014,857,1,-15,10,
0,1015,2559,1,-15,15,
0,1016,1049,-1,10,-10,
0,1017,883,-1,5,-10,
0,1018,1801,1,-10,5,
0,1019,1265,1,10,0,
0,1020,2337,-1,10,-15,
0,1021,2538,1,0,-5,
0,1022,2245,-1,-15,5,
0,1023,885,1,10,-5,
0,1024,951,-1,0,15,
0,1025,1073,1,15,-15,
0,1026,1245,-1,5,10,
0,1027,1101,-1,-15,10,
0,1028,1245,1,15,-15,
0,1029,1627,1,15,5,
0,1030,995,1,15,-5,
0,1031,1671,1,-10,-15,
0,1032,963,-1,-10,15,
0,1033,2451,-1,5,15,
0,1034,919,-1,-15,15,
0,1035,1175,-1,-15,5,
0,1036,1629,-1,-10,0,
0,1037,933,-1,-10,10,
0,1038,965,-1,-5,5,
0,1039,1947,1,10,15,
0,1040,991,1,10,-5,
0,1041,1001,-1,0,10,
0,1042,2073,1,15,5,
0,1043,1205,1,5,0,
0,1044,935,-1,-10,10,
0,1045,1019,1,5,-5,
0,1046,2075,-1,-15,-5,
0,1047,1077,1,5,-5,
0,1048,1025,-1,-5,15,
0,1049,3667,1,-15,15,
0,1050,1186,1,10,15,
0,1051,2041,-1,0,-5,
0,1052,1685,-1,-10,-15,
0,1053,1223,1,10,5,
0,1054,1199,1,5,-10,
0,1055,1527,-1,15,10,
0,1056,1545,1,-15,0,
0,1057,1473,-1,5,10,
0,1058,1179,1,15,-10,
0,1059,1267,1,5,0,
0,1060,1611,-1,-5,0,
0,1061,1117,-1,-10,5,
0,1062,1165,-1,5,15,
0,1063,1020,-1,-5,15,
0,1064,1835,-1,-10,5,
0,1065,3755,1,5,-15,
0,1066,2911,1,5,-10,
0,1067,2977,1,5,-15,
0,1068,1345,-1,-10,15,
0,1069,1485,-1,0,-15,
0,1070,1925,-1,-5,-15,
0,1071,2831,1,15,10,
0,1072,813,-1,-5,0,
0,1073,1175,-1,-5,10,
0,1074,1455,-1,-5,-15,
0,1075,939,1,10,0,
0,1076,863,1,10,-10,
0,1077,1611,-1,-5,-10,
0,1078,1081,1,-10,0,
0,1079,1093,1,10,5,
0,1080,1629,-1,0,5,
0,1081,869,1,-10,-5,
0,1082,1243,-1,15,-10,
0,1083,1675,-1,10,-15,
0,1084,999,-1,0,-15,
0,1085,951,1,15,0,
0,1086,1545,-1,10,-15,
0,1087,885,1,10,0,
0,1088,995,-1,0,10,
0,1089,1423,1,-15,-10,
0,1090,1901,-1,0,5,
0,1091,1789,-1,0,-10,
0,1092,1001,-1,0,15,
0,1093,1407,-1,-10,-5,
0,1094,1191,-1,-5,5,
0,1095,1134,1,-15,0,
0,1096,989,1,15,0,
0,1097,989,1,-15,-5,
0,1098,1025,1,-15,-10,
0,1099,1745,-1,0,-10,
0,1100,2011,-1,10,-10,
0,1101,1157,1,-5,10,
0,1102,1031,-1,-5,-10,
0,1103,871,1,15,-5,
0,1104,1821,1,-15,10,
0,1105,2423,1,-5,5,
0,1106,1321,-1,-5,-15,
0,1107,1413,-1,5,-10,
0,1108,981,1,-15,5,
0,1109,1271,1,-15,15,
0,1110,1041,1,-15,15,
0,1111,1275,-1,0,15,
0,1112,985,1,-15,0,
0,1113,1247,-1,5,15,
0,1114,3237,1,-15,-10,
0,1115,983,1,15,10,
0,1116,1358,-1,-5,-15,
0,1117,1605,-1,10,15,
0,1118,1091,-1,5,10,
0,1119,923,1,15,-10,
0,1120,2103,1,15,-5,
0,1121,1199,-1,-5,-10,
0,1122,1779,1,-10,10,
0,1123,1391,1,5,0,
0,1124,1280,-1,-5,5,
0,1125,1255,-1,5,-5,
0,1126,1813,1,-10,10,
0,1127,1307,1,-5,0,
0,1128,1156,1,15,5,
0,1129,942,1,-15,5,
0,1130,1733,-1,-5,15,
0,1131,1761,-1,5,10,
0,1132,1047,1,15,0,
0,1133,1186,-1,0,10,
0,1134,1215,1,-5,0,
0,1135,1223,1,10,-5,
0,1136,1035,-1,0,-5,
0,1137,1129,-1,-15,10,
0,1138,1167,-1,-15,15,
0,1139,931,-1,0,-10,
0,1140,1433,1,15,10,
0,1141,1366,1,-15,-10,
0,1142,1257,-1,5,10,
0,1143,939,1,15,-5,
0,1144,1585,1,5,0,
0,1145,2483,1,-15,-10,
0,1146,1137,-1,5,-15,
0,1147,1053,1,-10,5,
0,1148,935,-1,0,-10,
0,1149,739,1,15,-15,
0,1150,963,-1,0,10,
0,1151,1155,-1,0,-15,
0,1152,1119,-1,5,-15,
0,1153,1143,1,10,5,
0,1154,1283,1,5,-5,
0,1155,1417,-1,-15,5,
0,1156,1125,-1,0,5,
0,1157,1141,-1,-10,10,
0,1158,1025,-1,-5,10,
0,1159,937,1,15,-5,
0,1160,2089,1,0,-5,
0,1161,1313,-1,-5,5,
0,1162,999,1,-10,-5,
0,1163,1479,-1,-5,-15,
0,1164,1427,1,5,-5,
0,1165,1039,1,15,-10,
0,1166,999,-1,-5,-10,
0,1167,1219,1,-10,-5,
0,1168,1055,-1,-5,10,
0,1169,963,1,15,5,
0,1170,1267,1,-10,0,
0,1171,963,1,15,5,
0,1172,917,1,10,0,
0,1173,1663,-1,-15,5,
0,1174,1145,-1,5,15,
0,1175,1293,-1,-5,-15,
0,1176,1087,-1,-10,-15,
0,1177,1677,1,-5,-10,
0,1178,939,1,15,-10,
0,1179,1063,-1,-5,15,
0,1180,1439,-1,-10,-15,
0,1181,1139,1,-15,-5,
0,1182,2196,1,5,-10,
0,1183,883,1,10,0,
0,1184,1759,-1,5,15,
0,1185,1227,1,-15,0,
0,1186,1171,-1,-5,15,
0,1187,1109,1,10,-5,
0,1188,1076,-1,0,15,
0,1189,2597,1,-5,15,
0,1190,923,1,-10,5,
0,1191,1093,-1,10,-10,
0,1192,1945,1,-15,10,
0,1193,2025,-1,10,15,
0,1194,2279,1,15,-5,
0,1195,1017,-1,0,15,
0,1196,1375,-1,15,-10,
0,1197,1011,1,-10,0,
0,1198,1306,-1,0,5,
0,1199,1035,-1,0,-15,
0,1200,903,1,-10,10,
0,1201,2301,-1,10,15,
0,1202,1157,1,-5,10,
0,1203,1125,-1,5,15,
0,1204,965,1,-10,-5,
0,1205,983,-1,0,-15,
0,1206,1345,1,5,0,
0,1207,1687,-1,-15,-10,
0,1208,1122,1,15,5,
0,1209,1125,-1,5,-15,
0,1210,953,-1,5,-10,
0,1211,1353,-1,15,-15,
0,1212,1277,1,10,5,
0,1213,1349,-1,0,5,
0,1214,1107,1,15,10,
0,1215,1085,1,15,10,
0,1216,2185,1,-10,15,
0,1217,2137,1,-10,0,
0,1218,814,1,-10,15,
0,1219,1773,-1,5,-5,
0,1220,1187,-1,0,10,
0,1221,1313,-1,0,-5,
0,1222,1017,1,-15,0,
0,1223,1253,-1,-5,10,
0,1224,1959,1,10,-10,
0,1225,1213,1,10,-5,
0,1226,1393,-1,-10,-15,
0,1227,1055,-1,0,10,
0,1228,1253,-1,-10,5,
0,1229,1119,-1,-10,15,
0,1230,1137,1,10,0,
0,1231,1007,-1,0,15,
0,1232,985,1,-10,-5,
0,1233,1227,-1,15,-15,
0,1234,717,1,-15,-5,
0,1235,1069,-1,0,5,
0,1236,737,1,-15,-5,
0,1237,772,-1,-5,10,
0,1238,829,-1,0,-5,
0,1239,1125,-1,0,-10,
0,1240,937,-1,0,-15,
0,1241,3717,1,10,5,
0,1242,1709,-1,10,5,
0,1243,1173,-1,0,-10,
0,1244,915,1,15,-10,
0,1245,1075,-1,-15,15,
0,1246,857,-1,5,0,
0,1247,979,-1,10,15,
0,1248,1819,1,-10,0,
0,1249,1685,-1,-15,10,
0,1250,917,1,-10,5,
0,1251,1063,-1,5,10,
0,1252,1291,-1,-10,15,
0,1253,925,1,-15,0,
0,1254,1613,-1,10,15,
0,1255,1397,-1,-10,10,
0,1256,1215,1,15,0,
0,1257,1331,-1,0,15,
0,1258,1399,-1,0,-15,
0,1259,1201,1,-5,0,
0,1260,1169,-1,5,-10,
0,1261,963,-1,10,-10,
0,1262,2443,1,10,-10,
0,1263,2414,1,15,-15,
0,1264,1379,-1,-10,15,
0,1265,875,-1,0,5,
0,1266,979,1,10,-15,
0,1267,1051,1,-15,-5,
0,1268,2267,1,-5,5,
0,1269,913,1,15,10,
0,1270,1025,-1,10,-15,
0,1271,1089,1,10,5,
0,1272,1073,1,15,0,
0,1273,1485,-1,-15,-10,
0,1274,1685,-1,10,-5,
0,1275,1125,1,15,-5,
0,1276,1567,1,-15,-5,
0,1277,2541,1,-15,5,
0,1278,2999,-1,10,-15,
0,1279,907,-1,5,15,
0,1280,1215,1,-15,0,
0,1281,1007,-1,5,10,
0,1282,1121,1,-5,0,
0,1283,1289,-1,0,-10,
0,1284,1323,-1,15,-15,
0,1285,1187,1,-10,0,
0,1286,1183,-1,-5,-10,
0,1287,1067,1,-10,-5,
0,1288,879,-1,0,10,
0,1289,891,1,15,0,
0,1290,1363,-1,-5,-15,
0,1291,903,1,-15,-5,
0,1292,891,-1,0,10,
0,1293,1331,-1,5,0,
0,1294,2345,1,-10,-15,
0,1295,1009,-1,5,-15,
0,1296,1261,-1,-5,-10,
0,1297,1312,-1,5,-5,
0,1298,1155,-1,-5,-15,
0,1299,3048,-1,-5,10,
0,1300,1403,-1,0,-5,
0,1301,1081,1,15,-5,
0,1302,913,1,-15,10,
0,1303,1342,1,5,0,
0,1304,967,1,-10,0,
0,1305,1815,1,10,-10,
0,1306,2071,-1,15,-15,
0,1307,939,1,15,0,
0,1308,1201,1,-15,10,
0,1309,1245,-1,5,-15,
0,1310,1019,1,10,-5,
0,1311,1011,1,10,0,
0,1312,1233,-1,5,-15,
0,1313,1177,-1,-5,15,
0,1314,1119,1,15,5,
0,1315,1201,1,15,10,
0,1316,1093,-1,10,-15,
0,1317,1273,-1,5,-10,
0,1318,1179,-1,0,-15,
0,1319,1733,-1,-5,-10,
0,1320,1981,-1,5,15,
0,1321,997,-1,10,-15,
0,1322,837,-1,0,5,
0,1323,1429,-1,-10,-15,
0,1324,975,1,-15,-10,
0,1325,1035,1,-10,-5,
0,1326,1439,-1,10,15,
0,1327,2669,-1,-10,5,
0,1328,1091,1,-5,0,